T [ms],AccX [mg],AccY [mg],AccZ [mg],GyroX [mdps],GyroY [mdps],GyroZ [mdps],MagX [mgauss],MagY [mgauss],MagZ [mgauss],P [mB],T [°C],H [%]
23854, -746, 68, 1401, -24500, 3360, -2590, -447, 565, -867, 995.45, 24.14, 100.0
23858, 1966, -1149, -970, -24500, 3360, -2590, -438, 574, -879, 995.36, 24.14, 100.0
23874, -1285, 1457, 1588, -42350, 37310, 14980, -438, 574, -879, 995.36, 24.14, 100.0
23878, -943, 87, 1137, -42350, 37310, 14980, -469, 624, -882, 995.35, 24.14, 100.0
23894, -1998, 1997, -1649, 88690, 184940, -20300, -469, 624, -882, 995.35, 24.14, 100.0
23898, -548, -174, -1395, -83370, -130480, 65940, -447, 568, -865, 995.33, 24.14, 100.0
23914, 1996, -1998, 210, -83370, -130480, 65940, -447, 568, -865, 995.33, 24.14, 100.0
23918, 1996, -1998, -148, -290500, -437150, 377300, -343, 496, -844, 994.30, 24.16, 100.0
23934, 294, 275, 1003, -290500, -437150, 377300, -343, 496, -844, 994.30, 24.16, 100.0
23938, 219, 298, 844, -222670, -168280, 128100, -321, 486, -837, 993.68, 24.16, 100.0
23954, 854, -477, 985, -222670, -168280, 128100, -321, 486, -837, 993.68, 24.16, 100.0
23958, 912, -425, 942, -80570, -32830, 20440, -309, 478, -829, 993.44, 24.16, 100.0
23974, 889, -509, 927, -91000, -28280, 53970, -286, 477, -819, 993.44, 24.16, 100.0
23978, 850, -516, 951, -91000, -28280, 53970, -286, 477, -819, 993.40, 24.16, 100.0
23994, 564, -545, 1002, -66010, -2730, 66570, -270, 492, -811, 993.40, 24.16, 100.0
23998, 470, -598, 1025, -66010, -2730, 66570, -270, 492, -811, 993.46, 24.14, 100.0
24014, 454, -431, 887, -42770, -1960, 64120, -262, 501, -817, 993.46, 24.14, 100.0
24018, 450, -297, 779, -42770, -1960, 64120, -262, 501, -817, 993.58, 24.14, 100.0
24034, 428, -420, 871, -31570, -15890, 42140, -252, 489, -817, 993.58, 24.14, 100.0
24038, 450, -409, 841, -31570, -15890, 42140, -252, 489, -817, 993.74, 24.14, 100.0
24054, 559, -383, 843, -29540, -32200, 7630, -243, 484, -808, 993.74, 24.14, 100.0
24058, 601, -393, 837, -29540, -32200, 7630, -243, 484, -808, 993.86, 24.14, 100.0
24074, 682, -411, 848, -32060, -36190, -11270, -235, 480, -808, 993.86, 24.17, 100.0
24078, 702, -458, 791, -32060, -36190, -11270, -235, 480, -808, 993.97, 24.17, 100.0
24094, 675, -409, 715, -33250, -28350, -7280, -238, 469, -802, 993.97, 24.17, 100.0
24098, 672, -414, 765, -33250, -28350, -7280, -238, 469, -802, 994.06, 24.17, 100.0
24102, 654, -388, 773, -33250, -28350, -7280, -238, 469, -802, 994.06, 24.17, 100.0
24114, 533, -407, 760, -32760, -20440, -2870, -229, 474, -796, 994.06, 24.17, 100.0
24118, 505, -426, 776, -32760, -20440, -2870, -229, 474, -796, 994.28, 24.17, 100.0
24122, 503, -482, 769, -32760, -20440, -2870, -229, 474, -796, 994.28, 24.17, 100.0
24134, 481, -518, 842, -35140, -11900, -9240, -219, 477, -792, 994.28, 24.17, 100.0
24138, 461, -391, 782, -35140, -11900, -9240, -219, 477, -792, 994.28, 24.17, 100.0
24142, 420, -354, 862, -35140, -11900, -9240, -219, 477, -792, 994.28, 24.17, 100.0
24154, 585, -451, 811, -36120, -13440, -18340, -222, 469, -781, 994.28, 24.17, 100.0
24158, 606, -420, 787, -36120, -13440, -18340, -222, 469, -781, 994.34, 24.17, 100.0
24162, 673, -398, 730, -36120, -13440, -18340, -222, 469, -781, 994.34, 24.17, 100.0
24174, 608, -402, 797, -27230, -17780, -10500, -213, 460, -784, 994.34, 24.17, 100.0
24178, 604, -430, 764, -27230, -17780, -10500, -213, 460, -784, 994.40, 24.17, 100.0
24182, 577, -435, 783, -27230, -17780, -10500, -213, 460, -784, 994.40, 24.17, 100.0
24194, 480, -379, 782, -19320, -8540, 3010, -222, 468, -780, 994.40, 24.17, 100.0
24198, 442, -380, 810, -19320, -8540, 3010, -222, 468, -780, 994.49, 24.17, 100.0
24202, 426, -380, 803, -15050, 140, 2450, -222, 468, -780, 994.49, 24.17, 100.0
24214, 472, -395, 807, -15050, 140, 2450, -217, 463, -787, 994.49, 24.17, 100.0
24218, 548, -365, 785, -15050, 140, 2450, -217, 463, -787, 994.54, 24.17, 100.0
24222, 603, -361, 768, -15680, -3990, -5880, -217, 463, -787, 994.54, 24.17, 100.0
24234, 643, -371, 761, -15680, -3990, -5880, -204, 462, -784, 994.54, 24.17, 100.0
24238, 645, -381, 757, -15680, -3990, -5880, -204, 462, -784, 994.44, 24.17, 100.0
24242, 679, -395, 752, -17850, -9730, -4480, -204, 462, -784, 994.44, 24.17, 100.0
24254, 607, -487, 769, -17850, -9730, -4480, -207, 453, -780, 994.44, 24.17, 100.0
24258, 583, -488, 776, -17850, -9730, -4480, -207, 453, -780, 994.47, 24.17, 100.0
24262, 529, -485, 786, -15890, -3710, 6090, -207, 453, -780, 994.47, 24.17, 100.0
24274, 452, -464, 792, -15890, -3710, 6090, -198, 462, -781, 994.47, 24.17, 100.0
24278, 415, -440, 793, -7560, 1400, 6020, -198, 462, -781, 994.45, 24.17, 100.0
24282, 443, -413, 778, -7560, 1400, 6020, -198, 462, -781, 994.45, 24.17, 100.0
24294, 583, -379, 749, -7560, 1400, 6020, -210, 457, -777, 994.45, 24.17, 100.0
24298, 604, -352, 740, -1470, -5740, -11690, -210, 457, -777, 994.48, 24.17, 100.0
24302, 627, -302, 735, -1470, -5740, -11690, -210, 457, -777, 994.48, 24.17, 100.0
24314, 533, -200, 741, -1470, -5740, -11690, -201, 453, -771, 994.48, 24.17, 100.0
24318, 552, -201, 734, -210, -7350, -22610, -201, 453, -771, 994.43, 24.17, 100.0
24322, 561, -210, 730, -210, -7350, -22610, -201, 453, -771, 994.43, 24.17, 100.0
24334, 565, -259, 739, -5180, -1540, -13790, -196, 453, -771, 994.43, 24.17, 100.0
24338, 551, -255, 748, -5180, -1540, -13790, -196, 453, -771, 994.43, 24.17, 100.0
24342, 568, -277, 753, -5180, -1540, -13790, -196, 453, -771, 994.43, 24.17, 100.0
24354, 664, -355, 755, -14350, 1050, -5740, -199, 456, -774, 994.43, 24.17, 100.0
24358, 716, -382, 776, -14350, 1050, -5740, -199, 456, -774, 994.35, 24.17, 100.0
24362, 821, -383, 723, -14350, 1050, -5740, -192, 451, -772, 994.35, 24.17, 100.0
24374, 739, -619, 826, -22400, 5320, 7490, -192, 451, -772, 994.35, 24.17, 100.0
24378, 703, -560, 807, -22400, 5320, 7490, -192, 451, -772, 994.34, 24.17, 100.0
24382, 692, -534, 790, -22400, 5320, 7490, -193, 462, -768, 994.34, 24.17, 100.0
24394, 716, -553, 788, -18900, 15680, 20230, -193, 462, -768, 994.34, 24.19, 100.0
24398, 705, -549, 786, -18900, 15680, 20230, -193, 462, -768, 994.30, 24.19, 100.0
24402, 696, -545, 778, -18900, 15680, 20230, -184, 463, -775, 994.30, 24.19, 100.0
24414, 615, -530, 791, -6300, 23520, 13370, -184, 463, -775, 994.30, 24.19, 100.0
24418, 589, -529, 790, -6300, 23520, 13370, -184, 463, -775, 994.34, 24.19, 100.0
24422, 546, -530, 796, -6300, 23520, 13370, -183, 465, -775, 994.34, 24.19, 100.0
24434, 247, -453, 856, -490, 29260, 2730, -183, 465, -775, 994.34, 24.19, 100.0
24438, 112, -502, 833, -490, 29260, 2730, -183, 465, -775, 994.29, 24.19, 100.0
24442, 91, -457, 927, -490, 29260, 2730, -186, 477, -780, 994.29, 24.19, 100.0
24454, 86, -549, 905, -1540, 22120, -21700, -186, 477, -780, 994.29, 24.19, 100.0
24458, 310, -685, 861, -1540, 22120, -21700, -186, 477, -780, 994.24, 24.19, 100.0
24462, 428, -781, 759, -1540, 22120, -21700, -193, 474, -778, 994.24, 24.19, 100.0
24474, 371, -712, 785, -11830, -9170, -45920, -193, 474, -778, 994.24, 24.19, 100.0
24478, 372, -671, 771, -11830, -9170, -45920, -193, 474, -778, 994.28, 24.19, 100.0
24482, 431, -599, 763, -11830, -9170, -45920, -192, 462, -775, 994.28, 24.19, 100.0
24494, 639, -519, 722, 3850, -24570, -46970, -192, 462, -775, 994.28, 24.19, 100.0
24498, 705, -490, 708, 3850, -24570, -46970, -195, 450, -772, 994.24, 24.19, 100.0
24502, 731, -476, 698, 3850, -24570, -46970, -195, 450, -772, 994.24, 24.19, 100.0
24514, 850, -430, 672, 22960, -30170, -44940, -195, 450, -772, 994.24, 24.19, 100.0
24518, 867, -403, 677, 22960, -30170, -44940, -207, 444, -780, 994.23, 24.19, 100.0
24522, 882, -381, 681, 22960, -30170, -44940, -207, 444, -780, 994.23, 24.19, 100.0
24534, 854, -310, 699, 28840, -20720, -33110, -207, 444, -780, 994.23, 24.19, 100.0
24538, 834, -290, 710, 28840, -20720, -33110, -195, 451, -783, 994.24, 24.19, 100.0
24542, 823, -283, 710, 28840, -20720, -33110, -195, 451, -783, 994.24, 24.19, 100.0
24554, 771, -268, 719, 31430, 980, -20090, -195, 451, -783, 994.24, 24.19, 100.0
24558, 739, -264, 722, 31430, 980, -20090, -214, 445, -784, 994.22, 24.19, 100.0
24562, 706, -254, 727, 30520, 20090, -12250, -214, 445, -784, 994.22, 24.19, 100.0
24574, 605, -234, 743, 30520, 20090, -12250, -214, 445, -784, 994.22, 24.19, 100.0
24578, 589, -231, 748, 30520, 20090, -12250, -213, 456, -784, 994.23, 24.19, 100.0
24582, 552, -228, 762, 27720, 32550, -13510, -213, 456, -784, 994.23, 24.19, 100.0
24594, 456, -231, 777, 27720, 32550, -13510, -213, 456, -784, 994.23, 24.19, 100.0
24598, 432, -236, 785, 27720, 32550, -13510, -225, 469, -784, 994.21, 24.19, 100.0
24602, 414, -241, 784, 23100, 35910, -21560, -225, 469, -784, 994.21, 24.19, 100.0
24614, 226, -217, 790, 23100, 35910, -21560, -225, 469, -784, 994.21, 24.19, 100.0
24618, 112, -264, 784, 23100, 35910, -21560, -226, 460, -789, 994.17, 24.19, 100.0
24622, 28, -47, 950, 21210, 30450, -25760, -226, 460, -789, 994.17, 24.19, 100.0
24634, 75, 136, 639, 21210, 30450, -25760, -232, 465, -790, 994.17, 24.19, 100.0
24638, 652, 137, 875, 18550, 7910, -11060, -232, 465, -790, 994.21, 24.19, 100.0
24642, 818, 233, 801, 18550, 7910, -11060, -232, 465, -790, 994.21, 24.19, 100.0
24654, -186, -1318, 884, 18550, 7910, -11060, -226, 465, -804, 994.21, 24.19, 100.0
24658, 403, -648, 317, 1190, -35980, 25270, -226, 465, -804, 994.37, 24.19, 100.0
24662, 204, 267, 927, 1190, -35980, 25270, -226, 465, -804, 994.37, 24.19, 100.0
24674, 164, 297, 746, 1190, -35980, 25270, -234, 462, -790, 994.37, 24.19, 100.0
24678, 409, -291, 693, 12600, -13650, -13580, -234, 462, -790, 994.45, 24.19, 100.0
24682, 541, -498, 762, 12600, -13650, -13580, -234, 462, -790, 994.45, 24.19, 100.0
24694, 868, -460, 779, 12600, -13650, -13580, -232, 451, -784, 994.45, 24.19, 100.0
24698, 759, -585, 849, -23310, -40670, -29120, -232, 451, -784, 994.53, 24.19, 100.0
24702, 776, -545, 898, -23310, -40670, -29120, -232, 451, -784, 994.53, 24.19, 100.0
24714, 567, -245, 854, -8750, -26530, -7350, -228, 444, -784, 994.53, 24.19, 100.0
24718, 454, -321, 923, -8750, -26530, -7350, -228, 444, -784, 994.47, 24.19, 100.0
24722, 788, -760, 926, -8750, -26530, -7350, -228, 444, -784, 994.47, 24.19, 100.0
24734, 473, -245, 860, -2030, -22750, -12880, -228, 441, -777, 994.47, 24.19, 100.0
24738, 559, -356, 876, -2030, -22750, -12880, -228, 441, -777, 994.49, 24.19, 100.0
24742, 536, -297, 795, -2030, -22750, -12880, -228, 441, -777, 994.49, 24.19, 100.0
24754, 630, -293, 773, -3640, -21560, -7420, -228, 433, -777, 994.49, 24.19, 100.0
24758, 602, -274, 803, -3640, -21560, -7420, -228, 433, -777, 994.61, 24.19, 100.0
24762, 604, -164, 806, -3640, -21560, -7420, -228, 433, -777, 994.61, 24.19, 100.0
24774, 637, -234, 746, -12320, -23870, -2170, -223, 433, -784, 994.61, 24.19, 100.0
24778, 692, -276, 723, -12320, -23870, -2170, -223, 433, -784, 994.77, 24.19, 100.0
24782, 662, -185, 850, -12320, -23870, -2170, -223, 433, -784, 994.77, 24.19, 100.0
24794, 633, -303, 752, -12110, -17780, -2660, -223, 429, -777, 994.77, 24.19, 100.0
24798, 640, -295, 743, -12110, -17780, -2660, -223, 429, -777, 995.07, 24.19, 100.0
24802, 578, -280, 742, -12110, -17780, -2660, -223, 429, -777, 995.07, 24.19, 100.0
24814, 518, -277, 744, -11480, -10570, -2870, -222, 427, -775, 995.07, 24.19, 100.0
24818, 492, -236, 758, -11480, -10570, -2870, -222, 427, -775, 995.35, 24.19, 100.0
24822, 491, -253, 746, -11480, -10570, -2870, -222, 427, -775, 995.35, 24.19, 100.0
24834, 512, -258, 738, -6860, -6650, -2520, -225, 429, -774, 995.35, 24.19, 100.0
24838, 501, -265, 761, -6860, -6650, -2520, -225, 429, -774, 995.60, 24.19, 100.0
24842, 493, -253, 745, -6860, -6650, -2520, -225, 429, -774, 995.60, 24.19, 100.0
24854, 518, -292, 737, -6580, -7560, -8120, -223, 418, -763, 995.60, 24.21, 100.0
24858, 488, -298, 739, -6580, -7560, -8120, -223, 418, -763, 995.84, 24.21, 100.0
24862, 487, -283, 737, -6580, -7560, -8120, -223, 418, -763, 995.84, 24.21, 100.0
24874, 506, -317, 744, -6720, -8470, -16660, -217, 417, -763, 995.84, 24.21, 100.0
24878, 509, -310, 746, -6720, -8470, -16660, -217, 417, -763, 996.00, 24.21, 100.0
24882, 523, -304, 735, -6720, -8470, -16660, -217, 417, -763, 996.00, 24.21, 100.0
24894, 609, -321, 731, -4480, -11200, -25340, -217, 414, -772, 996.00, 24.21, 100.0
24898, 620, -313, 726, -4480, -11200, -25340, -217, 414, -772, 996.07, 24.21, 100.0
24902, 642, -292, 722, -4480, -11200, -25340, -217, 414, -772, 996.07, 24.21, 100.0
24914, 704, -222, 701, 560, -13930, -35770, -223, 414, -762, 996.07, 24.21, 100.0
24918, 723, -191, 706, 560, -13930, -35770, -223, 414, -762, 995.94, 24.21, 100.0
24922, 724, -163, 684, 4690, -8470, -45150, -223, 414, -762, 995.94, 24.21, 100.0
24934, 618, -56, 732, 4690, -8470, -45150, -217, 403, -769, 995.94, 24.17, 100.0
24938, 639, -73, 720, 4690, -8470, -45150, -217, 403, -769, 995.79, 24.17, 100.0
24942, 622, -61, 728, 1190, 9940, -26530, -217, 403, -769, 995.79, 24.17, 100.0
24954, 631, -40, 725, 1190, 9940, -26530, -225, 402, -771, 995.79, 24.17, 100.0
24958, 635, 47, 727, 1190, 9940, -26530, -225, 402, -771, 995.56, 24.17, 100.0
24962, 633, 42, 702, -7420, 26390, 16100, -225, 402, -771, 995.56, 24.17, 100.0
24974, 475, -21, 736, -7420, 26390, 16100, -229, 420, -771, 995.56, 24.17, 100.0
24978, 390, -3, 781, -7420, 26390, 16100, -229, 420, -771, 995.29, 24.17, 100.0
24982, 309, 0, 775, -23870, 35000, 26530, -229, 420, -771, 995.29, 24.17, 100.0
24994, 12, -106, 754, -23870, 35000, 26530, -213, 426, -771, 995.29, 24.17, 100.0
24998, 178, -237, 756, -39620, 25690, 18970, -213, 426, -771, 995.05, 24.17, 100.0
25002, 363, -160, 780, -39620, 25690, 18970, -213, 426, -771, 995.05, 24.17, 100.0
25014, 445, 176, 724, -39620, 25690, 18970, -211, 426, -760, 995.05, 24.21, 100.0
25018, 299, -94, 686, -54600, -3990, 26670, -211, 426, -760, 994.88, 24.21, 100.0
25022, 345, -317, 741, -54600, -3990, 26670, -211, 426, -760, 994.88, 24.21, 100.0
25034, 459, -472, 745, -54600, -3990, 26670, -193, 424, -765, 994.88, 24.21, 100.0
25038, 481, -490, 742, -75530, -18200, 11900, -193, 424, -765, 994.71, 24.21, 100.0
25042, 541, -500, 744, -75530, -18200, 11900, -177, 430, -747, 994.71, 24.21, 100.0
25054, 728, -762, 783, -75530, -18200, 11900, -177, 430, -747, 994.71, 24.21, 100.0
25058, 640, -898, 749, -76160, -33320, -2100, -177, 430, -747, 994.63, 24.21, 100.0
25062, 594, -1175, 754, -76160, -33320, -2100, -165, 417, -736, 994.63, 24.21, 100.0
25074, 538, -736, 659, -63420, -33950, -37170, -165, 417, -736, 994.63, 24.21, 100.0
25078, 563, -1279, 695, -63420, -33950, -37170, -165, 417, -736, 994.52, 24.21, 100.0
25082, 1398, -1047, 796, -63420, -33950, -37170, -169, 411, -733, 994.52, 24.21, 100.0
25094, 996, -707, 815, -24010, -28980, -16660, -169, 411, -733, 994.52, 24.19, 100.0
25098, 1223, -997, 700, -24010, -28980, -16660, -169, 411, -733, 994.55, 24.19, 100.0
25102, 1176, -972, 702, -24010, -28980, -16660, -159, 399, -730, 994.55, 24.19, 100.0
25114, 738, -558, 754, -3290, -18060, -14420, -159, 399, -730, 994.55, 24.19, 100.0
25118, 878, -609, 748, -3290, -18060, -14420, -159, 399, -730, 994.56, 24.19, 100.0
25122, 934, -565, 712, -3290, -18060, -14420, -165, 394, -739, 994.56, 24.19, 100.0
25134, 808, -389, 702, 16660, -5880, -14070, -165, 394, -739, 994.56, 24.19, 100.0
25138, 760, -364, 686, 16660, -5880, -14070, -165, 394, -739, 994.57, 24.19, 100.0
25142, 745, -337, 684, 16660, -5880, -14070, -180, 406, -733, 994.57, 24.19, 100.0
25154, 604, -276, 652, 25550, 8330, -24640, -180, 406, -733, 994.57, 24.19, 100.0
25158, 529, -236, 655, 25550, 8330, -24640, -180, 406, -733, 994.59, 24.19, 100.0
25162, 464, -189, 647, 25550, 8330, -24640, -172, 400, -739, 994.59, 24.19, 100.0
25174, 419, -104, 641, 26810, 18130, -32690, -172, 400, -739, 994.59, 24.21, 100.0
25178, 399, -113, 646, 26810, 18130, -32690, -190, 408, -742, 994.55, 24.21, 100.0
25182, 358, -106, 656, 26810, 18130, -32690, -190, 408, -742, 994.55, 24.21, 100.0
25194, 311, -122, 667, 18130, 11690, -31430, -190, 408, -742, 994.55, 24.21, 100.0
25198, 338, -137, 670, 18130, 11690, -31430, -187, 393, -742, 994.68, 24.21, 100.0
25202, 329, -144, 673, 18130, 11690, -31430, -187, 393, -742, 994.68, 24.21, 100.0
25214, 395, -179, 675, 840, -3430, -24920, -187, 393, -742, 994.68, 24.21, 100.0
25218, 408, -181, 682, 840, -3430, -24920, -181, 400, -741, 994.69, 24.21, 100.0
25222, 437, -207, 675, 840, -3430, -24920, -181, 400, -741, 994.69, 24.21, 100.0
25234, 512, -247, 678, -15050, -21630, -14840, -181, 400, -741, 994.69, 24.21, 100.0
25238, 553, -260, 668, -15050, -21630, -14840, -178, 390, -741, 994.75, 24.21, 100.0
25242, 543, -269, 679, -15050, -21630, -14840, -178, 390, -741, 994.75, 24.23, 100.0
25254, 616, -316, 689, -26040, -34020, -2450, -178, 390, -741, 994.75, 24.23, 100.0
25258, 638, -322, 686, -26040, -34020, -2450, -177, 384, -724, 994.73, 24.23, 100.0
25262, 628, -333, 701, -26040, -34020, -2450, -177, 384, -724, 994.73, 24.23, 100.0
25274, 684, -372, 700, -31850, -37030, 7490, -177, 384, -724, 994.73, 24.23, 100.0
25278, 662, -365, 717, -31850, -37030, 7490, -174, 369, -718, 994.72, 24.23, 100.0
25282, 639, -376, 709, -31850, -37030, 7490, -174, 369, -718, 994.72, 24.23, 100.0
25294, 817, -487, 703, -33250, -35630, 16660, -174, 369, -718, 994.72, 24.23, 100.0
25298, 714, -466, 694, -33250, -35630, 16660, -165, 379, -714, 994.64, 24.23, 100.0
25302, 743, -507, 728, -32970, -33250, 22050, -165, 379, -714, 994.64, 24.23, 100.0
25314, 785, -569, 686, -32970, -33250, 22050, -160, 376, -708, 994.64, 24.23, 100.0
25318, 778, -579, 676, -32970, -33250, 22050, -160, 376, -708, 994.63, 24.23, 100.0
25322, 785, -583, 677, -28420, -25340, 16730, -160, 376, -708, 994.63, 24.21, 100.0
25334, 649, -404, 706, -28420, -25340, 16730, -163, 373, -712, 994.63, 24.21, 100.0
25338, 446, 17, 790, -28420, -25340, 16730, -163, 373, -712, 994.55, 24.21, 100.0
25342, 328, -90, 637, -19110, -17710, 14910, -163, 373, -712, 994.55, 24.21, 100.0
25354, 1173, -1306, 475, -19110, -17710, 14910, -144, 381, -694, 994.55, 24.21, 100.0
25358, 1233, -1235, 598, -19110, -17710, 14910, -144, 381, -694, 994.49, 24.21, 100.0
25362, 1136, -522, 673, -35910, -30870, 32900, -144, 381, -694, 994.49, 24.21, 100.0
25374, 751, -537, 682, -35910, -30870, 32900, -130, 381, -693, 994.49, 24.21, 100.0
25378, 736, -569, 630, -21350, -16520, 32830, -130, 381, -693, 994.48, 24.21, 100.0
25382, 758, -620, 658, -21350, -16520, 32830, -130, 381, -693, 994.48, 24.21, 100.0
25394, 770, -575, 632, -21350, -16520, 32830, -133, 378, -685, 994.48, 24.21, 100.0
25398, 769, -552, 624, -8750, -2380, 21700, -133, 378, -685, 994.41, 24.21, 100.0
25402, 753, -519, 624, -8750, -2380, 21700, -133, 378, -685, 994.41, 24.21, 100.0
25414, 671, -489, 644, -8750, -2380, 21700, -141, 387, -690, 994.41, 24.21, 100.0
25418, 673, -493, 621, 2800, 2660, 7210, -141, 387, -690, 994.48, 24.21, 100.0
25422, 662, -453, 626, 2800, 2660, 7210, -141, 387, -690, 994.48, 24.21, 100.0
25434, 529, -403, 655, 2800, 7980, -12040, -136, 370, -696, 994.48, 24.21, 100.0
25438, 462, -382, 656, 8540, 7980, -12040, -136, 370, -696, 994.44, 24.21, 100.0
25442, 401, -329, 649, 8540, 7980, -12040, -136, 370, -696, 994.44, 24.21, 100.0
25454, 507, -342, 637, 13510, 2450, -13720, -136, 387, -699, 994.44, 24.21, 100.0
25458, 536, -306, 621, 13510, 2450, -13720, -136, 387, -699, 994.36, 24.21, 100.0
25462, 575, -302, 604, 13510, 2450, -13720, -136, 387, -699, 994.36, 24.21, 100.0
25474, 665, -283, 609, 12460, -12110, -700, -142, 378, -697, 994.36, 24.21, 100.0
25478, 683, -287, 610, 12460, -12110, -700, -142, 378, -697, 994.36, 24.21, 100.0
25482, 725, -301, 603, 12460, -12110, -700, -142, 378, -697, 994.36, 24.21, 100.0
25494, 747, -340, 610, 7140, -12810, 11620, -144, 382, -691, 994.36, 24.21, 100.0
25498, 746, -343, 616, 7140, -12810, 11620, -144, 382, -691, 994.34, 24.21, 100.0
25502, 742, -377, 620, 7140, -12810, 11620, -144, 382, -691, 994.34, 24.21, 100.0
25514, 739, -400, 629, -280, -5740, 15960, -130, 382, -696, 994.34, 24.21, 100.0
25518, 697, -411, 622, -280, -5740, 15960, -130, 382, -696, 994.38, 24.21, 100.0
25522, 702, -414, 624, -280, -5740, 15960, -130, 382, -696, 994.38, 24.21, 100.0
25534, 691, -428, 626, -3850, -70, 15330, -135, 379, -693, 994.38, 24.21, 100.0
25538, 703, -401, 636, -3850, -70, 15330, -135, 379, -693, 994.35, 24.21, 100.0
25542, 705, -416, 615, -3850, -70, 15330, -135, 379, -693, 994.35, 24.21, 100.0
25554, 684, -391, 627, -3850, 700, 12670, -133, 388, -693, 994.35, 24.23, 100.0
25558, 696, -397, 644, -3850, 700, 12670, -133, 388, -693, 994.31, 24.23, 100.0
25562, 695, -404, 641, -3850, 700, 12670, -133, 388, -693, 994.31, 24.23, 100.0
25574, 649, -390, 651, -4550, 420, 7560, -126, 393, -697, 994.31, 24.23, 100.0
25578, 649, -387, 653, -4550, 420, 7560, -126, 393, -697, 994.28, 24.23, 100.0
25582, 648, -404, 653, -4550, 420, 7560, -126, 393, -697, 994.28, 24.23, 100.0
25594, 639, -412, 661, -6790, 420, 5040, -127, 399, -685, 994.28, 24.23, 100.0
25598, 640, -440, 661, -6790, 420, 5040, -127, 399, -685, 994.28, 24.23, 100.0
25602, 638, -459, 654, -6790, 420, 5040, -127, 399, -685, 994.28, 24.23, 100.0
25614, 637, -483, 661, -10780, -1330, 4060, -129, 400, -688, 994.28, 24.23, 100.0
25618, 627, -493, 664, -10780, -1330, 4060, -129, 400, -688, 994.27, 24.23, 100.0
25622, 628, -505, 662, -10780, -1330, 4060, -129, 400, -688, 994.27, 24.23, 100.0
25634, 656, -514, 654, -13510, -4480, 4060, -121, 396, -693, 994.27, 24.21, 100.0
25638, 673, -511, 650, -13510, -4480, 4060, -121, 396, -693, 994.26, 24.21, 100.0
25642, 672, -516, 652, -13510, -4480, 4060, -121, 396, -693, 994.26, 24.21, 100.0
25654, 676, -515, 663, -13650, -9380, 3920, -126, 384, -681, 994.26, 24.21, 100.0
25658, 677, -526, 671, -13650, -9380, 3920, -126, 384, -681, 994.24, 24.21, 100.0
25662, 695, -537, 670, -12740, -13230, 420, -126, 384, -681, 994.24, 24.21, 100.0
25674, 764, -549, 672, -12740, -13230, 420, -123, 388, -688, 994.24, 24.21, 100.0
25678, 762, -546, 674, -12740, -13230, 420, -123, 388, -688, 994.27, 24.21, 100.0
25682, 737, -539, 679, -9520, -15890, -1820, -123, 388, -688, 994.27, 24.21, 100.0
25694, 709, -546, 693, -9520, -15890, -1820, -126, 391, -687, 994.27, 24.21, 100.0
25698, 734, -539, 691, -9520, -15890, -1820, -126, 391, -687, 994.21, 24.21, 100.0
25702, 758, -508, 673, -1750, -13860, -3150, -126, 391, -687, 994.21, 24.21, 100.0
25714, 742, -479, 661, -1750, -13860, -3150, -124, 381, -685, 994.21, 24.17, 100.0
25718, 743, -453, 652, -1750, -13860, -3150, -124, 381, -685, 994.23, 24.17, 100.0
25722, 727, -432, 656, 8820, -11340, -3150, -120, 381, -681, 994.23, 24.17, 100.0
25734, 685, -407, 660, 8820, -11340, -3150, -120, 381, -681, 994.23, 24.17, 100.0
25738, 668, -400, 658, 17570, -3640, -4340, -120, 381, -681, 994.24, 24.17, 100.0
25742, 663, -392, 656, 17570, -3640, -4340, -129, 382, -684, 994.24, 24.17, 100.0
25754, 662, -389, 660, 17570, -3640, -4340, -129, 382, -684, 994.24, 24.17, 100.0
25758, 659, -393, 661, 21140, 910, -3640, -129, 382, -684, 994.25, 24.17, 100.0
25762, 659, -395, 666, 21140, 910, -3640, -130, 378, -684, 994.25, 24.17, 100.0
25774, 634, -408, 644, 21140, 910, -3640, -130, 378, -684, 994.25, 24.17, 100.0
25778, 633, -422, 634, 23660, 3710, -1960, -130, 378, -684, 994.25, 24.17, 100.0
25782, 634, -426, 630, 23660, 3710, -1960, -127, 387, -700, 994.30, 24.17, 100.0
25794, 640, -421, 613, 23660, 3710, -1960, -127, 387, -700, 994.30, 24.19, 100.0
25798, 642, -411, 609, 28140, 6300, -1540, -127, 387, -700, 994.30, 24.19, 100.0
25802, 643, -406, 605, 28140, 6300, -1540, -138, 396, -685, 994.30, 24.19, 100.0
25814, 638, -416, 597, 33110, 8820, -3150, -138, 396, -685, 994.30, 24.19, 100.0
25818, 635, -421, 596, 33110, 8820, -3150, -138, 396, -685, 994.30, 24.19, 100.0
25822, 628, -433, 594, 33110, 8820, -3150, -139, 384, -700, 994.23, 24.19, 100.0
25834, 612, -447, 582, 36260, 11270, -7420, -139, 384, -700, 994.23, 24.19, 100.0
25838, 606, -442, 575, 36260, 11270, -7420, -139, 388, -703, 994.23, 24.19, 100.0
25842, 605, -437, 570, 36260, 11270, -7420, -147, 388, -703, 994.16, 24.19, 100.0
25854, 634, -428, 568, 42140, 11550, -11130, -147, 388, -703, 994.16, 24.19, 100.0
25858, 643, -430, 566, 42140, 11550, -11130, -151, 387, -715, 994.16, 24.19, 100.0
25862, 661, -435, 572, 42140, 11550, -11130, -151, 387, -715, 994.20, 24.19, 100.0
25874, 679, -425, 589, 48230, 9450, -12110, -151, 387, -715, 994.20, 24.23, 100.0
25878, 683, -417, 592, 48230, 9450, -12110, -165, 385, -715, 994.20, 24.23, 100.0
25882, 684, -409, 594, 48230, 9450, -12110, -165, 385, -715, 994.16, 24.23, 100.0
25894, 714, -386, 602, 53340, 7840, -11480, -165, 385, -715, 994.16, 24.23, 100.0
25898, 739, -397, 610, 53340, 7840, -11480, -165, 387, -724, 994.16, 24.23, 100.0
25902, 783, -421, 616, 53340, 7840, -11480, -165, 387, -724, 994.17, 24.23, 100.0
25914, 879, -509, 649, 55580, 3640, -6090, -165, 387, -724, 994.17, 24.23, 100.0
25918, 929, -539, 663, 55580, 3640, -6090, -177, 391, -732, 994.17, 24.23, 100.0
25922, 954, -551, 667, 55580, 3640, -6090, -177, 391, -732, 994.17, 24.23, 100.0
25934, 1037, -563, 673, 58450, 2030, 2240, -177, 391, -732, 994.17, 24.23, 100.0
25938, 1028, -555, 681, 58450, 2030, 2240, -189, 399, -735, 994.17, 24.23, 100.0
25942, 1005, -550, 679, 58450, 2030, 2240, -189, 399, -735, 994.16, 24.23, 100.0
25954, 925, -548, 686, 69230, 11970, 5390, -189, 399, -735, 994.16, 24.25, 100.0
25958, 914, -556, 688, 69230, 11970, 5390, -196, 394, -742, 994.16, 24.25, 100.0
25962, 901, -566, 691, 69230, 11970, 5390, -196, 394, -742, 994.20, 24.25, 100.0
25974, 883, -592, 695, 78470, 27510, 3850, -210, 400, -759, 994.20, 24.25, 100.0
25978, 866, -590, 694, 78470, 27510, 3850, -210, 400, -759, 994.20, 24.25, 100.0
25982, 851, -578, 698, 78470, 27510, 3850, -210, 400, -759, 994.19, 24.25, 100.0
25994, 805, -519, 705, 84840, 36960, 2030, -234, 408, -766, 994.19, 24.25, 100.0
25998, 792, -507, 710, 84840, 36960, 2030, -234, 408, -766, 994.19, 24.25, 100.0
26002, 768, -499, 715, 84840, 36960, 2030, -234, 408, -766, 994.13, 24.25, 100.0
26014, 743, -478, 724, 92400, 43680, -1330, -243, 420, -778, 994.13, 24.25, 100.0
26018, 732, -465, 720, 92400, 43680, -1330, -243, 420, -778, 994.13, 24.25, 100.0
26022, 725, -463, 718, 94990, 45500, -4830, -243, 420, -778, 994.12, 24.23, 100.0
26034, 725, -485, 734, 94990, 45500, -4830, -249, 427, -784, 994.12, 24.23, 100.0
26038, 725, -487, 739, 94990, 45500, -4830, -249, 427, -784, 994.12, 24.23, 100.0
26042, 723, -489, 745, 96250, 44870, -10780, -249, 427, -784, 994.18, 24.23, 100.0
26054, 709, -465, 764, 96250, 44870, -10780, -274, 432, -799, 994.18, 24.23, 100.0
26058, 705, -443, 772, 96250, 44870, -10780, -274, 432, -799, 994.18, 24.23, 100.0
26062, 701, -427, 774, 100730, 45220, -23030, -274, 432, -799, 994.16, 24.23, 100.0
26074, 693, -351, 767, 100730, 45220, -23030, -298, 439, -819, 994.16, 24.23, 100.0
26078, 695, -336, 767, 100730, 45220, -23030, -298, 439, -819, 994.16, 24.23, 100.0
26082, 704, -329, 767, 106400, 44660, -36470, -298, 439, -819, 994.15, 24.23, 100.0
26094, 719, -280, 765, 106400, 44660, -36470, -312, 444, -822, 994.15, 24.23, 100.0
26098, 705, -242, 758, 107590, 43820, -45990, -312, 444, -822, 994.15, 24.23, 100.0
26102, 693, -229, 757, 107590, 43820, -45990, -312, 444, -822, 994.17, 24.21, 100.0
26114, 656, -203, 753, 107590, 43820, -45990, -342, 451, -823, 994.17, 24.21, 100.0
26118, 664, -204, 747, 107590, 47460, -52080, -342, 451, -823, 994.17, 24.21, 100.0
26122, 674, -225, 742, 107590, 47460, -52080, -342, 451, -823, 994.17, 24.21, 100.0
26134, 688, -237, 743, 107590, 47460, -52080, -355, 456, -837, 994.17, 24.21, 100.0
26138, 682, -235, 743, 104440, 51800, -54180, -355, 456, -837, 994.17, 24.21, 100.0
26142, 667, -233, 741, 104440, 51800, -54180, -355, 456, -837, 994.15, 24.21, 100.0
26154, 635, -208, 734, 104440, 51800, -54180, -373, 465, -835, 994.15, 24.21, 100.0
26158, 611, -186, 726, 105070, 60270, -55720, -373, 465, -835, 994.15, 24.21, 100.0
26162, 592, -160, 718, 105070, 60270, -55720, -373, 465, -835, 994.08, 24.21, 100.0
26174, 572, -127, 700, 107520, 69440, -56980, -405, 474, -850, 994.08, 24.21, 100.0
26178, 569, -138, 704, 107520, 69440, -56980, -405, 474, -850, 994.08, 24.21, 100.0
26182, 568, -162, 711, 107520, 69440, -56980, -405, 474, -850, 994.14, 24.21, 100.0
26194, 530, -170, 734, 107520, 77210, -55790, -426, 499, -853, 994.14, 24.21, 100.0
26198, 503, -142, 738, 107520, 77210, -55790, -426, 499, -853, 994.14, 24.21, 100.0
26202, 484, -120, 738, 107520, 77210, -55790, -426, 499, -853, 994.08, 24.21, 100.0
26214, 392, -12, 741, 112420, 85610, -56490, -448, 504, -859, 994.08, 24.21, 100.0
26218, 362, 11, 741, 112420, 85610, -56490, -448, 504, -859, 994.08, 24.21, 100.0
26222, 343, 24, 741, 112420, 85610, -56490, -448, 504, -859, 994.12, 24.21, 100.0
26234, 324, 42, 752, 114940, 88340, -58030, -478, 523, -865, 994.12, 24.21, 100.0
26238, 315, 65, 756, 114940, 88340, -58030, -478, 523, -865, 994.12, 24.21, 100.0
26242, 310, 76, 760, 114940, 88340, -58030, -478, 523, -865, 994.09, 24.21, 100.0
26254, 275, 119, 759, 113330, 86520, -59080, -499, 531, -861, 994.09, 24.23, 100.0
26258, 261, 145, 755, 113330, 86520, -59080, -499, 531, -861, 994.09, 24.23, 100.0
26262, 240, 175, 752, 113330, 86520, -59080, -499, 531, -861, 994.08, 24.23, 100.0
26274, 209, 260, 749, 114800, 86590, -60270, -529, 559, -874, 994.08, 24.23, 100.0
26278, 201, 280, 749, 114800, 86590, -60270, -529, 559, -874, 994.08, 24.23, 100.0
26282, 193, 319, 747, 114800, 86590, -60270, -529, 559, -874, 994.05, 24.23, 100.0
26294, 176, 352, 744, 113470, 84980, -55930, -549, 576, -871, 994.05, 24.23, 100.0
26298, 170, 370, 740, 113470, 84980, -55930, -549, 576, -871, 994.05, 24.23, 100.0
26302, 157, 393, 734, 113470, 84980, -55930, -549, 576, -871, 994.01, 24.23, 100.0
26314, 138, 420, 761, 104860, 81550, -48580, -562, 595, -867, 994.01, 24.23, 100.0
26318, 133, 425, 768, 104860, 81550, -48580, -562, 595, -867, 994.01, 24.23, 100.0
26322, 114, 435, 779, 104860, 81550, -48580, -562, 595, -867, 994.03, 24.23, 100.0
26334, 64, 465, 818, 93030, 79170, -42910, -588, 610, -867, 994.03, 24.23, 100.0
26338, 40, 503, 828, 93030, 79170, -42910, -588, 610, -867, 994.03, 24.23, 100.0
26342, 29, 521, 828, 93030, 79170, -42910, -588, 610, -867, 994.00, 24.23, 100.0
26354, 28, 549, 858, 82600, 75810, -38850, -607, 630, -874, 994.00, 24.23, 100.0
26358, 27, 556, 865, 82600, 75810, -38850, -607, 630, -874, 994.00, 24.23, 100.0
26362, 17, 580, 876, 82600, 75810, -38850, -607, 630, -874, 993.99, 24.23, 100.0
26374, 19, 580, 901, 70840, 67270, -32970, -618, 636, -865, 993.99, 24.23, 100.0
26378, 32, 571, 910, 70840, 67270, -32970, -618, 636, -865, 993.99, 24.23, 100.0
26382, 37, 571, 912, 70840, 67270, -32970, -619, 649, -858, 994.03, 24.23, 100.0
26394, 51, 540, 930, 54460, 56000, -25410, -619, 649, -858, 994.03, 24.23, 100.0
26398, 62, 523, 938, 54460, 56000, -25410, -619, 649, -858, 994.03, 24.23, 100.0
26402, 56, 529, 953, 38080, 45430, -17220, -628, 661, -867, 994.04, 24.23, 100.0
26414, 35, 555, 977, 38080, 45430, -17220, -628, 661, -867, 994.04, 24.23, 100.0
26418, 35, 539, 984, 38080, 45430, -17220, -628, 661, -867, 994.04, 24.23, 100.0
26422, 39, 529, 985, 24570, 37170, -9590, -642, 678, -858, 994.04, 24.23, 100.0
26434, 55, 453, 989, 24570, 37170, -9590, -642, 678, -858, 994.04, 24.23, 100.0
26438, 65, 430, 985, 24570, 37170, -9590, -642, 678, -858, 994.04, 24.23, 100.0
26442, 83, 401, 985, 9310, 26320, 1540, -633, 681, -862, 993.97, 24.23, 100.0
26454, 125, 351, 985, 9310, 26320, 1540, -633, 681, -862, 993.97, 24.23, 100.0
26458, 123, 345, 989, 9310, 26320, 1540, -633, 681, -862, 993.97, 24.23, 100.0
26462, 123, 340, 991, -3150, 15470, 13510, -628, 675, -862, 994.01, 24.23, 100.0
26474, 118, 311, 1000, -3150, 15470, 13510, -628, 675, -862, 994.01, 24.23, 100.0
26478, 119, 296, 1001, -10290, 8960, 20230, -628, 675, -862, 994.01, 24.23, 100.0
26482, 119, 277, 1005, -10290, 8960, 20230, -636, 681, -862, 993.99, 24.23, 100.0
26494, 114, 259, 1000, -10290, 8960, 20230, -636, 681, -862, 993.99, 24.27, 100.0
26498, 115, 254, 1001, -14560, 3780, 20440, -636, 681, -862, 993.99, 24.27, 100.0
26502, 120, 248, 1000, -14560, 3780, 20440, -625, 672, -864, 993.99, 24.27, 100.0
26514, 149, 236, 1002, -14560, 3780, 20440, -625, 672, -864, 993.99, 24.27, 100.0
26518, 158, 232, 1006, -16450, -1820, 15540, -631, 681, -858, 993.99, 24.27, 100.0
26522, 159, 235, 1007, -16450, -1820, 15540, -631, 681, -858, 993.94, 24.27, 100.0
26534, 161, 225, 992, -16450, -1820, 8890, -631, 681, -858, 993.94, 24.27, 100.0
26538, 170, 209, 982, -17920, -6300, 8890, -625, 676, -858, 993.94, 24.27, 100.0
26542, 192, 192, 961, -17920, -6300, 8890, -625, 676, -858, 993.96, 24.27, 100.0
26554, 256, 101, 980, -19040, -8680, 5110, -625, 676, -858, 993.96, 24.27, 100.0
26558, 276, 88, 982, -19040, -8680, 5110, -613, 667, -861, 993.96, 24.27, 100.0
26562, 279, 90, 982, -19040, -8680, 5110, -613, 667, -861, 993.95, 24.27, 100.0
26574, 271, 102, 992, -14980, -6160, 2660, -613, 667, -861, 993.95, 24.25, 100.0
26578, 275, 101, 996, -14980, -6160, 2660, -616, 685, -862, 993.95, 24.25, 100.0
26582, 277, 98, 1003, -14980, -6160, 2660, -616, 685, -862, 993.92, 24.25, 100.0
26594, 278, 97, 1012, -5670, 1190, 0, -616, 685, -862, 993.92, 24.25, 100.0
26598, 277, 99, 1013, -5670, 1190, 0, -615, 673, -856, 993.92, 24.25, 100.0
26602, 279, 101, 1011, -5670, 1190, 0, -615, 673, -856, 993.95, 24.25, 100.0
26614, 262, 110, 1003, 1890, 7770, -2800, -615, 673, -856, 993.95, 24.25, 100.0
26618, 249, 109, 1004, 1890, 7770, -2800, -616, 678, -870, 993.95, 24.25, 100.0
26622, 242, 113, 994, 1890, 7770, -2800, -616, 678, -870, 993.99, 24.25, 100.0
26634, 210, 142, 996, 7630, 12390, -6440, -616, 678, -870, 993.99, 24.25, 100.0
26638, 203, 152, 995, 7630, 12390, -6440, -618, 678, -861, 993.99, 24.25, 100.0
26642, 186, 174, 995, 7630, 12390, -6440, -618, 678, -861, 994.01, 24.25, 100.0
26654, 145, 223, 1003, 11900, 14210, -10290, -621, 682, -868, 994.01, 24.25, 100.0
26658, 128, 237, 1005, 11900, 14210, -10290, -621, 682, -868, 994.01, 24.25, 100.0
26662, 118, 243, 1003, 11900, 14210, -10290, -621, 682, -868, 993.99, 24.25, 100.0
26674, 92, 273, 980, 12810, 11900, -12180, -621, 681, -864, 993.99, 24.25, 100.0
26678, 88, 280, 975, 12810, 11900, -12180, -621, 681, -864, 993.99, 24.25, 100.0
26682, 84, 292, 963, 12810, 11900, -12180, -621, 681, -864, 993.93, 24.25, 100.0
26694, 71, 295, 922, 10080, 5250, -10430, -618, 691, -862, 993.93, 24.25, 100.0
26698, 68, 284, 908, 10080, 5250, -10430, -618, 691, -862, 993.93, 24.25, 100.0
26702, 67, 277, 902, 10080, 5250, -10430, -618, 691, -862, 993.95, 24.25, 100.0
26714, 72, 249, 886, 4690, -1680, -8190, -630, 693, -861, 993.95, 24.25, 100.0
26718, 71, 245, 878, 4690, -1680, -8190, -630, 693, -861, 993.95, 24.25, 100.0
26722, 62, 244, 869, 4690, -1680, -8190, -630, 693, -861, 993.97, 24.23, 100.0
26734, 44, 250, 844, 1680, -4690, -10010, -625, 690, -856, 993.97, 24.23, 100.0
26738, 53, 251, 845, 1680, -4690, -10010, -625, 690, -856, 993.97, 24.23, 100.0
26742, 50, 268, 842, 1680, -4690, -10010, -625, 690, -856, 993.98, 24.23, 100.0
26754, 74, 316, 865, 7700, -3220, -15120, -622, 685, -861, 993.98, 24.23, 100.0
26758, 72, 327, 875, 7700, -3220, -15120, -622, 685, -861, 993.98, 24.23, 100.0
26762, 71, 336, 884, 18410, -840, -17990, -622, 685, -861, 994.04, 24.23, 100.0
26774, 76, 385, 899, 18410, -840, -17990, -628, 679, -862, 994.04, 24.23, 100.0
26778, 78, 394, 902, 18410, -840, -17990, -628, 679, -862, 994.04, 24.23, 100.0
26782, 78, 416, 906, 28350, 2730, -19390, -628, 679, -862, 994.03, 24.23, 100.0
26794, 56, 470, 927, 28350, 2730, -19390, -634, 685, -850, 994.03, 24.23, 100.0
26798, 44, 490, 934, 28350, 2730, -19390, -634, 685, -850, 994.03, 24.23, 100.0
26802, 39, 496, 942, 31010, 5670, -22050, -634, 685, -850, 994.04, 24.23, 100.0
26814, 31, 486, 951, 31010, 5670, -22050, -636, 691, -858, 994.04, 24.23, 100.0
26818, 28, 485, 947, 31010, 5670, -22050, -636, 691, -858, 994.04, 24.23, 100.0
26822, 28, 481, 940, 23240, 6020, -26600, -636, 691, -858, 994.01, 24.23, 100.0
26834, 40, 459, 929, 23240, 6020, -26600, -643, 685, -853, 994.01, 24.23, 100.0
26838, 45, 455, 925, 12250, 2170, -27790, -643, 685, -853, 994.01, 24.23, 100.0
26842, 48, 449, 923, 12250, 2170, -27790, -643, 685, -853, 994.00, 24.23, 100.0
26854, 77, 412, 913, 12250, 2170, -27790, -643, 694, -858, 994.00, 24.23, 100.0
26858, 97, 395, 916, 2870, -3290, -23310, -643, 694, -858, 994.00, 24.23, 100.0
26862, 118, 382, 921, 2870, -3290, -23310, -643, 694, -858, 994.01, 24.23, 100.0
26874, 159, 371, 933, 2870, -3290, -23310, -634, 694, -856, 994.01, 24.23, 100.0
26878, 171, 376, 935, -1540, -7490, -15190, -634, 694, -856, 994.01, 24.23, 100.0
26882, 175, 377, 936, -1540, -7490, -15190, -634, 694, -856, 993.99, 24.23, 100.0
26894, 201, 382, 942, -1540, -7490, -15190, -642, 688, -856, 993.99, 24.23, 100.0
26898, 211, 379, 946, 0, -6510, -8890, -642, 688, -856, 993.99, 24.23, 100.0
26902, 210, 382, 950, 0, -6510, -8890, -642, 688, -856, 994.07, 24.23, 100.0
26914, 186, 399, 955, 1680, -2240, -5670, -636, 699, -858, 994.07, 24.23, 100.0
26918, 182, 401, 955, 1680, -2240, -5670, -636, 699, -858, 994.07, 24.23, 100.0
26922, 174, 404, 956, 1680, -2240, -5670, -636, 699, -858, 994.06, 24.23, 100.0
26934, 156, 399, 948, 1750, 2450, -3990, -637, 691, -864, 994.06, 24.23, 100.0
26938, 153, 395, 943, 1750, 2450, -3990, -637, 691, -864, 994.06, 24.23, 100.0
26942, 147, 393, 934, 1750, 2450, -3990, -637, 691, -864, 994.02, 24.23, 100.0
26954, 125, 386, 926, -280, 4550, -2730, -637, 694, -858, 994.02, 24.23, 100.0
26958, 120, 386, 927, -280, 4550, -2730, -637, 694, -858, 994.02, 24.29, 100.0
26962, 111, 381, 928, -280, 4550, -2730, -637, 694, -858, 994.02, 24.29, 100.0
26974, 81, 379, 935, -2310, 4970, -1190, -636, 699, -858, 994.02, 24.29, 100.0
26978, 77, 377, 940, -2310, 4970, -1190, -636, 699, -858, 994.02, 24.29, 100.0
26982, 74, 374, 944, -2310, 4970, -1190, -636, 699, -858, 994.06, 24.29, 100.0
26994, 69, 347, 962, -4830, 3080, 1120, -637, 702, -867, 994.06, 24.29, 100.0
26998, 69, 336, 974, -4830, 3080, 1120, -637, 702, -867, 994.06, 24.29, 100.0
27002, 76, 346, 975, -4830, 3080, 1120, -637, 702, -867, 994.09, 24.29, 100.0
27014, 88, 344, 999, -6930, -1330, 3780, -643, 694, -853, 994.09, 24.29, 100.0
27018, 88, 350, 997, -6930, -1330, 3780, -643, 694, -853, 994.09, 24.29, 100.0
27022, 89, 352, 998, -6930, -1330, 3780, -643, 694, -853, 994.03, 24.29, 100.0
27034, 96, 332, 988, -7210, -4830, 5740, -630, 703, -858, 994.03, 24.25, 100.0
27038, 100, 324, 982, -7210, -4830, 5740, -630, 703, -858, 994.03, 24.25, 100.0
27042, 107, 316, 972, -7210, -4830, 5740, -631, 694, -852, 993.99, 24.25, 100.0
27054, 120, 294, 938, -7350, -6790, 6860, -631, 694, -852, 993.99, 24.25, 100.0
27058, 125, 289, 935, -7350, -6790, 6860, -631, 694, -852, 993.99, 24.25, 100.0
27062, 131, 283, 923, -7350, -6790, 6860, -627, 693, -855, 994.03, 24.25, 100.0
27074, 164, 277, 919, -6440, -7910, 9170, -627, 693, -855, 994.03, 24.25, 100.0
27078, 167, 287, 922, -6440, -7910, 9170, -627, 693, -855, 994.03, 24.25, 100.0
27082, 165, 303, 926, -6440, -7910, 9170, -633, 690, -859, 994.03, 24.25, 100.0
27094, 147, 335, 925, -4480, -7840, 12390, -633, 690, -859, 994.03, 24.25, 100.0
27098, 142, 340, 924, -4480, -7840, 12390, -633, 690, -859, 994.03, 24.25, 100.0
27102, 141, 351, 923, -4480, -7840, 12390, -631, 684, -853, 993.98, 24.25, 100.0
27114, 143, 370, 922, -2100, -6790, 14700, -631, 684, -853, 993.98, 24.23, 100.0
27118, 144, 377, 921, -2100, -6790, 14700, -631, 684, -853, 993.98, 24.23, 100.0
27122, 147, 378, 924, -2800, -8330, 16660, -624, 685, -858, 993.97, 24.23, 100.0
27134, 170, 363, 953, -2800, -8330, 16660, -624, 685, -858, 993.97, 24.23, 100.0
27138, 169, 357, 957, -2800, -8330, 16660, -624, 685, -858, 993.97, 24.23, 100.0
27142, 187, 332, 964, -7140, -11060, 16730, -625, 685, -859, 993.98, 24.23, 100.0
27154, 246, 251, 986, -7140, -11060, 16730, -625, 685, -859, 993.98, 24.23, 100.0
27158, 266, 227, 990, -7140, -11060, 16730, -625, 685, -859, 993.98, 24.23, 100.0
27162, 275, 218, 996, -11970, -14420, 16310, -622, 679, -862, 994.01, 24.23, 100.0
27174, 305, 196, 1009, -11970, -14420, 16310, -622, 679, -862, 994.01, 24.23, 100.0
27178, 312, 192, 1016, -11970, -14420, 16310, -622, 678, -861, 994.01, 24.23, 100.0
27182, 318, 187, 1014, -10360, -14840, 14000, -622, 678, -861, 993.98, 24.23, 100.0
27194, 337, 173, 1011, -10360, -14840, 14000, -622, 678, -861, 993.98, 24.29, 100.0
27198, 339, 165, 1010, -4480, -11620, 9100, -610, 681, -859, 993.98, 24.29, 100.0
27202, 344, 161, 1007, -4480, -11620, 9100, -610, 681, -859, 994.04, 24.29, 100.0
27214, 332, 166, 1007, -4480, -11620, 9100, -610, 681, -859, 994.04, 24.29, 100.0
27218, 322, 176, 1007, 2100, -6160, 2240, -612, 675, -859, 994.04, 24.29, 100.0
27222, 309, 182, 1001, 2100, -6160, 2240, -612, 675, -859, 994.04, 24.29, 100.0
27234, 265, 187, 984, 2100, -6160, 2240, -612, 675, -859, 994.04, 24.29, 100.0
27238, 268, 187, 978, 10150, 280, -5040, -610, 681, -861, 994.04, 24.29, 100.0
27242, 277, 183, 964, 10150, 280, -5040, -610, 681, -861, 994.08, 24.29, 100.0
27254, 258, 192, 947, 10150, 280, -5040, -610, 681, -861, 994.08, 24.29, 100.0
27258, 234, 214, 942, 19740, 4550, -10220, -622, 673, -853, 994.08, 24.29, 100.0
27262, 212, 244, 933, 19740, 4550, -10220, -622, 673, -853, 994.02, 24.29, 100.0
27274, 165, 330, 902, 33530, 9870, -13370, -622, 673, -853, 994.02, 24.25, 100.0
27278, 162, 347, 894, 33530, 9870, -13370, -633, 684, -862, 994.02, 24.25, 100.0
27282, 161, 382, 882, 33530, 9870, -13370, -633, 684, -862, 994.07, 24.25, 100.0
27294, 158, 460, 848, 46060, 12110, -13860, -633, 684, -862, 994.07, 24.25, 100.0
27298, 154, 483, 833, 46060, 12110, -13860, -642, 685, -852, 994.07, 24.25, 100.0
27302, 152, 490, 825, 46060, 12110, -13860, -642, 685, -852, 994.05, 24.25, 100.0
27314, 123, 509, 812, 48860, 14000, -13860, -639, 690, -855, 994.05, 24.25, 100.0
27318, 100, 514, 814, 48860, 14000, -13860, -639, 690, -855, 994.05, 24.25, 100.0
27322, 73, 526, 819, 48860, 14000, -13860, -639, 690, -855, 994.04, 24.25, 100.0
27334, 12, 568, 845, 43960, 18340, -16660, -652, 691, -852, 994.04, 24.25, 100.0
27338, -5, 584, 858, 43960, 18340, -16660, -652, 691, -852, 994.04, 24.25, 100.0
27342, -16, 596, 864, 43960, 18340, -16660, -652, 691, -852, 994.02, 24.25, 100.0
27354, -52, 632, 876, 37240, 18480, -19600, -670, 703, -841, 994.02, 24.25, 100.0
27358, -54, 633, 879, 37240, 18480, -19600, -670, 703, -841, 994.02, 24.25, 100.0
27362, -52, 628, 877, 37240, 18480, -19600, -670, 703, -841, 994.01, 24.25, 100.0
27374, -33, 595, 871, 28070, 11550, -18270, -675, 705, -850, 994.01, 24.25, 100.0
27378, -29, 590, 872, 28070, 11550, -18270, -675, 705, -850, 994.01, 24.25, 100.0
27382, -20, 584, 873, 28070, 11550, -18270, -675, 705, -850, 993.97, 24.25, 100.0
27394, -18, 601, 875, 19110, 2310, -13860, -673, 693, -853, 993.97, 24.25, 100.0
27398, -17, 614, 876, 19110, 2310, -13860, -673, 693, -853, 993.97, 24.25, 100.0
27402, -20, 625, 874, 19110, 2310, -13860, -673, 693, -853, 994.01, 24.25, 100.0
27414, -13, 633, 870, 14420, -4620, -9240, -667, 705, -852, 994.01, 24.25, 100.0
27418, -9, 629, 869, 14420, -4620, -9240, -667, 705, -852, 994.01, 24.25, 100.0
27422, 5, 618, 867, 14420, -4620, -9240, -667, 705, -852, 993.98, 24.25, 100.0
27434, 35, 596, 859, 7490, -12320, -3710, -658, 696, -852, 993.98, 24.25, 100.0
27438, 50, 575, 858, 7490, -12320, -3710, -658, 696, -852, 993.98, 24.25, 100.0
27442, 61, 563, 858, 7490, -12320, -3710, -658, 696, -852, 993.98, 24.25, 100.0
27454, 121, 500, 864, -2660, -20580, 1610, -676, 678, -856, 993.98, 24.25, 100.0
27458, 126, 497, 867, -2660, -20580, 1610, -676, 678, -856, 993.98, 24.25, 100.0
27462, 140, 489, 871, -2660, -20580, 1610, -676, 678, -856, 993.98, 24.25, 100.0
27474, 176, 486, 886, -11060, -26670, 4270, -667, 685, -850, 993.98, 24.25, 100.0
27478, 192, 496, 885, -11060, -26670, 4270, -667, 685, -850, 993.98, 24.25, 100.0
27482, 197, 499, 884, -11060, -26670, 4270, -667, 685, -850, 994.00, 24.25, 100.0
27494, 229, 494, 879, -14910, -29680, 3150, -664, 673, -847, 994.00, 24.25, 100.0
27498, 251, 488, 877, -14910, -29680, 3150, -664, 673, -847, 994.00, 24.25, 100.0
27502, 255, 484, 877, -18620, -30380, 1050, -664, 673, -847, 994.05, 24.23, 100.0
27514, 257, 474, 878, -18620, -30380, 1050, -661, 673, -853, 994.05, 24.23, 100.0
27518, 254, 469, 881, -18620, -30380, 1050, -661, 673, -853, 994.05, 24.23, 100.0
27522, 247, 465, 884, -24570, -27930, -2310, -661, 673, -853, 994.06, 24.23, 100.0
27534, 219, 435, 895, -24570, -27930, -2310, -648, 673, -852, 994.06, 24.23, 100.0
27538, 206, 428, 902, -24570, -27930, -2310, -648, 673, -852, 994.06, 24.23, 100.0
27542, 194, 421, 909, -30940, -24080, -6860, -648, 673, -852, 994.03, 24.23, 100.0
27554, 170, 396, 917, -30940, -24080, -6860, -642, 660, -858, 994.03, 24.23, 100.0
27558, 169, 395, 920, -30940, -24080, -6860, -642, 660, -858, 994.03, 24.23, 100.0
27562, 162, 392, 923, -35630, -22960, -10640, -642, 660, -858, 993.97, 24.23, 100.0
27574, 169, 403, 922, -35630, -22960, -10640, -624, 655, -856, 993.97, 24.23, 100.0
27578, 175, 409, 919, -37310, -25970, -11060, -624, 655, -856, 993.97, 24.23, 100.0
27582, 178, 407, 920, -37310, -25970, -11060, -624, 655, -856, 993.95, 24.23, 100.0
27594, 183, 396, 922, -37310, -25970, -11060, -630, 661, -859, 993.95, 24.23, 100.0
27598, 182, 391, 922, -38640, -30450, -7000, -630, 661, -859, 993.95, 24.23, 100.0
27602, 184, 390, 921, -38640, -30450, -7000, -630, 661, -859, 993.93, 24.23, 100.0
27614, 177, 379, 923, -38640, -30450, -7000, -622, 648, -855, 993.93, 24.23, 100.0
27618, 177, 385, 925, -41020, -34230, -1820, -622, 648, -855, 993.93, 24.23, 100.0
27622, 170, 388, 925, -41020, -34230, -1820, -622, 648, -855, 993.91, 24.23, 100.0
27634, 153, 381, 922, -41020, -34230, -1820, -618, 640, -865, 993.91, 24.23, 100.0
27638, 152, 371, 921, -43120, -37170, 1470, -618, 640, -865, 993.91, 24.23, 100.0
27642, 144, 364, 919, -43120, -37170, 1470, -618, 640, -865, 993.90, 24.23, 100.0
27654, 137, 359, 916, -46760, -40320, 1610, -597, 640, -864, 993.90, 24.23, 100.0
27658, 133, 353, 911, -46760, -40320, 1610, -597, 640, -864, 993.90, 24.27, 100.0
27662, 131, 350, 911, -46760, -40320, 1610, -597, 640, -864, 993.90, 24.27, 100.0
27674, 124, 356, 906, -51030, -44170, -1750, -586, 627, -864, 993.90, 24.27, 100.0
27678, 127, 357, 901, -51030, -44170, -1750, -586, 627, -864, 993.90, 24.27, 100.0
27682, 134, 356, 894, -51030, -44170, -1750, -586, 627, -864, 993.88, 24.27, 100.0
27694, 165, 353, 879, -55510, -48930, -6160, -579, 618, -861, 993.88, 24.27, 100.0
27698, 172, 353, 874, -55510, -48930, -6160, -579, 618, -861, 993.88, 24.27, 100.0
27702, 181, 351, 864, -55510, -48930, -6160, -579, 618, -861, 993.88, 24.27, 100.0
27714, 212, 341, 833, -59500, -52430, -8190, -561, 604, -867, 993.88, 24.27, 100.0
27718, 208, 334, 828, -59500, -52430, -8190, -561, 604, -867, 993.88, 24.27, 100.0
27722, 199, 333, 825, -59500, -52430, -8190, -547, 594, -865, 993.86, 24.27, 100.0
27734, 244, 372, 832, -60270, -51800, -4970, -547, 594, -865, 993.86, 24.23, 100.0
27738, 248, 373, 832, -60270, -51800, -4970, -547, 594, -865, 993.86, 24.23, 100.0
27742, 259, 369, 838, -60270, -51800, -4970, -538, 589, -864, 993.91, 24.23, 100.0
27754, 173, 401, 871, -60270, -49350, 3850, -538, 589, -864, 993.91, 24.23, 100.0
27758, 182, 429, 870, -60270, -49350, 3850, -538, 589, -864, 993.91, 24.23, 100.0
27762, 203, 420, 871, -60270, -49350, 3850, -523, 579, -871, 993.99, 24.23, 100.0
27774, 284, 361, 889, -63560, -48930, 16310, -523, 579, -871, 993.99, 24.23, 100.0
27778, 299, 344, 883, -63560, -48930, 16310, -523, 579, -871, 993.99, 24.23, 100.0
27782, 306, 323, 887, -63560, -48930, 16310, -510, 559, -864, 993.98, 24.23, 100.0
27794, 347, 254, 880, -74970, -55230, 28420, -510, 559, -864, 993.98, 24.23, 100.0
27798, 352, 213, 878, -74970, -55230, 28420, -510, 559, -864, 993.98, 24.23, 100.0
27802, 361, 195, 877, -74970, -55230, 28420, -487, 549, -867, 993.96, 24.23, 100.0
27814, 407, 125, 872, -86380, -58870, 32760, -487, 549, -867, 993.96, 24.27, 100.0
27818, 418, 106, 874, -86380, -58870, 32760, -487, 549, -867, 993.96, 24.27, 100.0
27822, 436, 88, 874, -86380, -58870, 32760, -468, 537, -870, 994.00, 24.27, 100.0
27834, 467, 73, 885, -91910, -60200, 29820, -468, 537, -870, 994.00, 24.27, 100.0
27838, 460, 73, 888, -91910, -60200, 29820, -468, 537, -870, 994.00, 24.27, 100.0
27842, 447, 73, 891, -91910, -60200, 29820, -456, 534, -861, 994.05, 24.27, 100.0
27854, 432, 35, 882, -90720, -57260, 24080, -456, 534, -861, 994.05, 24.27, 100.0
27858, 431, 18, 885, -90720, -57260, 24080, -430, 520, -849, 994.05, 24.27, 100.0
27862, 437, 6, 881, -89040, -53410, 18830, -430, 520, -849, 994.07, 24.27, 100.0
27874, 406, 1, 886, -89040, -53410, 18830, -430, 520, -849, 994.07, 24.27, 100.0
27878, 409, 3, 888, -89040, -53410, 18830, -406, 511, -853, 994.07, 24.27, 100.0
27882, 416, 2, 891, -89110, -52990, 14280, -406, 511, -853, 994.07, 24.27, 100.0
27894, 430, -8, 878, -89110, -52990, 14280, -406, 511, -853, 994.07, 24.27, 100.0
27898, 437, -9, 867, -89110, -52990, 14280, -394, 502, -852, 994.07, 24.27, 100.0
27902, 444, -4, 858, -90580, -55090, 11900, -394, 502, -852, 994.04, 24.27, 100.0
27914, 466, 14, 827, -90580, -55090, 11900, -394, 502, -852, 994.04, 24.27, 100.0
27918, 474, 15, 820, -90580, -55090, 11900, -370, 493, -847, 994.04, 24.27, 100.0
27922, 484, 4, 809, -93940, -57540, 14490, -370, 493, -847, 994.04, 24.27, 100.0
27934, 501, -5, 796, -93940, -57540, 14490, -370, 493, -847, 994.04, 24.27, 100.0
27938, 510, 2, 795, -99750, -57960, 20790, -349, 480, -831, 994.04, 24.27, 100.0
27942, 511, 6, 796, -99750, -57960, 20790, -349, 480, -831, 994.08, 24.27, 100.0
27954, 519, -3, 780, -99750, -57960, 20790, -349, 480, -831, 994.08, 24.27, 100.0
27958, 538, -7, 772, -105490, -56560, 30800, -328, 474, -826, 994.08, 24.27, 100.0
27962, 548, -19, 770, -105490, -56560, 30800, -328, 474, -826, 994.14, 24.27, 100.0
27974, 532, -77, 770, -105490, -56560, 30800, -328, 474, -826, 994.14, 24.25, 100.0
27978, 528, -134, 771, -113610, -54250, 39690, -306, 465, -819, 994.14, 24.25, 100.0
27982, 524, -157, 776, -113610, -54250, 39690, -306, 465, -819, 994.08, 24.25, 100.0
27994, 523, -258, 790, -113610, -54250, 39690, -279, 462, -801, 994.08, 24.25, 100.0
27998, 537, -282, 794, -120890, -51100, 40950, -279, 462, -801, 994.08, 24.25, 100.0
28002, 555, -290, 795, -120890, -51100, 40950, -279, 462, -801, 994.08, 24.25, 100.0
28014, 574, -295, 798, -116550, -49910, 35280, -246, 454, -798, 994.08, 24.25, 100.0
28018, 581, -308, 797, -116550, -49910, 35280, -246, 454, -798, 994.08, 24.25, 100.0
28022, 603, -325, 793, -116550, -49910, 35280, -246, 454, -798, 994.11, 24.25, 100.0
28034, 636, -382, 794, -107170, -47110, 23940, -238, 450, -783, 994.11, 24.25, 100.0
28038, 649, -384, 792, -107170, -47110, 23940, -238, 450, -783, 994.11, 24.25, 100.0
28042, 649, -353, 797, -107170, -47110, 23940, -238, 450, -783, 994.11, 24.25, 100.0
28054, 659, -335, 785, -97510, -40110, 3780, -231, 442, -774, 994.11, 24.29, 100.0
28058, 650, -318, 786, -97510, -40110, 3780, -231, 442, -774, 994.11, 24.29, 100.0
28062, 611, -314, 786, -97510, -40110, 3780, -231, 442, -774, 994.18, 24.29, 100.0
28074, 655, -370, 778, -91420, -32340, -21070, -202, 432, -762, 994.18, 24.29, 100.0
28078, 621, -378, 784, -91420, -32340, -21070, -202, 432, -762, 994.18, 24.29, 100.0
28082, 625, -401, 778, -91420, -32340, -21070, -202, 432, -762, 994.25, 24.29, 100.0
28094, 640, -410, 780, -89810, -27580, -42350, -201, 430, -762, 994.25, 24.29, 100.0
28098, 654, -400, 773, -89810, -27580, -42350, -201, 430, -762, 994.25, 24.29, 100.0
28102, 648, -412, 763, -89810, -27580, -42350, -201, 430, -762, 994.29, 24.29, 100.0
28114, 746, -375, 744, -84140, -26110, -53620, -195, 420, -739, 994.29, 24.29, 100.0
28118, 738, -396, 740, -84140, -26110, -53620, -195, 420, -739, 994.29, 24.29, 100.0
28122, 754, -396, 742, -84140, -26110, -53620, -195, 420, -739, 994.27, 24.29, 100.0
28134, 729, -481, 735, -78190, -24570, -55790, -181, 403, -741, 994.27, 24.27, 100.0
28138, 718, -461, 748, -78190, -24570, -55790, -181, 403, -741, 994.27, 24.27, 100.0
28142, 730, -457, 742, -78190, -24570, -55790, -181, 403, -741, 994.31, 24.27, 100.0
28154, 696, -500, 749, -74900, -17150, -63280, -180, 399, -726, 994.31, 24.27, 100.0
28158, 688, -503, 754, -74900, -17150, -63280, -180, 399, -726, 994.31, 24.27, 100.0
28162, 689, -485, 754, -74900, -17150, -63280, -180, 399, -726, 994.25, 24.27, 100.0
28174, 702, -517, 745, -68810, -11200, -79100, -180, 388, -721, 994.25, 24.27, 100.0
28178, 698, -525, 745, -68810, -11200, -79100, -180, 388, -721, 994.25, 24.27, 100.0
28182, 700, -510, 736, -68810, -11200, -79100, -180, 388, -721, 994.24, 24.27, 100.0
28194, 756, -480, 720, -60970, -9730, -88410, -177, 379, -715, 994.24, 24.27, 100.0
28198, 761, -468, 720, -60970, -9730, -88410, -177, 379, -715, 994.24, 24.27, 100.0
28202, 761, -439, 714, -60970, -9730, -88410, -177, 379, -715, 994.24, 24.29, 100.0
28214, 747, -442, 711, -50120, -9450, -85750, -180, 367, -711, 994.24, 24.29, 100.0
28218, 754, -443, 710, -50120, -9450, -85750, -180, 367, -711, 994.24, 24.29, 100.0
28222, 762, -417, 718, -50120, -7490, -82530, -180, 367, -711, 994.24, 24.29, 100.0
28234, 677, -396, 739, -42280, -7490, -82530, -189, 358, -706, 994.24, 24.29, 100.0
28238, 680, -384, 736, -42280, -7490, -82530, -189, 358, -706, 994.24, 24.29, 100.0
28242, 693, -397, 730, -38430, -6160, -84000, -189, 358, -706, 994.25, 24.29, 100.0
28254, 610, -332, 734, -38430, -6160, -84000, -187, 349, -705, 994.25, 24.29, 100.0
28258, 601, -300, 712, -38430, -6160, -84000, -187, 349, -705, 994.25, 24.29, 100.0
28262, 610, -306, 707, -34160, -6860, -81690, -187, 349, -705, 994.18, 24.29, 100.0
28274, 705, -341, 698, -34160, -6860, -81690, -189, 343, -700, 994.18, 24.29, 100.0
28278, 745, -336, 701, -34160, -6860, -81690, -189, 343, -700, 994.18, 24.29, 100.0
28282, 785, -317, 688, -31150, -10500, -76860, -189, 343, -700, 994.18, 24.27, 100.0
28294, 704, -282, 714, -31150, -10500, -76860, -198, 330, -694, 994.18, 24.27, 100.0
28298, 744, -311, 714, -28350, -6650, -73010, -198, 330, -694, 994.18, 24.27, 100.0
28302, 768, -334, 707, -28350, -6650, -73010, -198, 330, -694, 994.18, 24.27, 100.0
28314, 784, -368, 707, -28350, -6650, -73010, -192, 319, -688, 994.18, 24.27, 100.0
28318, 764, -356, 709, -24010, -420, -63980, -192, 319, -688, 994.18, 24.27, 100.0
28322, 760, -349, 706, -24010, -420, -63980, -192, 319, -688, 994.19, 24.27, 100.0
28334, 770, -330, 688, -24010, -420, -63980, -202, 325, -688, 994.19, 24.27, 100.0
28338, 765, -322, 680, -14910, 5460, -57400, -202, 325, -688, 994.19, 24.27, 100.0
28342, 759, -305, 673, -14910, 5460, -57400, -202, 325, -688, 994.23, 24.27, 100.0
28354, 691, -233, 690, -14910, 5460, -57400, -208, 319, -691, 994.23, 24.27, 100.0
28358, 700, -209, 678, -8470, 10360, -54670, -208, 319, -691, 994.23, 24.29, 100.0
28362, 672, -180, 703, -8470, 10360, -54670, -208, 319, -691, 994.23, 24.29, 100.0
28374, 586, -190, 719, -9590, 11410, -52990, -208, 315, -687, 994.23, 24.29, 100.0
28378, 609, -193, 714, -9590, 11410, -52990, -208, 315, -687, 994.23, 24.29, 100.0
28382, 678, -161, 699, -9590, 11410, -52990, -208, 315, -687, 994.15, 24.29, 100.0
28394, 714, -211, 697, -16520, 4970, -50960, -217, 310, -687, 994.15, 24.29, 100.0
28398, 721, -231, 700, -16520, 4970, -50960, -217, 310, -687, 994.15, 24.29, 100.0
28402, 719, -240, 700, -16520, 4970, -50960, -222, 307, -685, 994.19, 24.29, 100.0
28414, 735, -234, 703, -20440, 4410, -48230, -222, 307, -685, 994.19, 24.29, 100.0
28418, 740, -237, 703, -20440, 4410, -48230, -222, 307, -685, 994.19, 24.29, 100.0
28422, 752, -264, 704, -20440, 4410, -48230, -226, 306, -684, 994.14, 24.29, 100.0
28434, 806, -310, 684, -17850, 10500, -40810, -226, 306, -684, 994.14, 24.29, 100.0
28438, 817, -331, 681, -17850, 10500, -40810, -226, 306, -684, 994.14, 24.29, 100.0
28442, 804, -343, 692, -17850, 10500, -40810, -217, 304, -688, 994.18, 24.29, 100.0
28454, 714, -325, 713, -13020, 20300, -31570, -217, 304, -688, 994.18, 24.29, 100.0
28458, 730, -341, 714, -13020, 20300, -31570, -217, 304, -688, 994.18, 24.29, 100.0
28462, 729, -360, 725, -13020, 20300, -31570, -228, 304, -699, 994.20, 24.29, 100.0
28474, 789, -365, 726, -6790, 28490, -31080, -228, 304, -699, 994.20, 24.29, 100.0
28478, 786, -368, 727, -6790, 28490, -31080, -228, 304, -699, 994.20, 24.29, 100.0
28482, 742, -354, 739, -6790, 28490, -31080, -232, 301, -700, 994.14, 24.29, 100.0
28494, 739, -362, 741, -630, 31430, -35000, -232, 301, -700, 994.14, 24.29, 100.0
28498, 731, -368, 742, -630, 31430, -35000, -232, 301, -700, 994.14, 24.29, 100.0
28502, 690, -338, 754, -630, 31430, -35000, -235, 310, -699, 994.20, 24.29, 100.0
28514, 634, -313, 764, 7910, 36190, -39480, -235, 310, -699, 994.20, 24.31, 100.0
28518, 636, -300, 764, 7910, 36190, -39480, -246, 310, -702, 994.20, 24.31, 100.0
28522, 635, -294, 764, 7910, 36190, -39480, -246, 310, -702, 994.25, 24.31, 100.0
28534, 608, -260, 767, 14210, 36680, -43190, -246, 310, -702, 994.25, 24.31, 100.0
28538, 606, -255, 765, 14210, 36680, -43190, -246, 307, -714, 994.25, 24.31, 100.0
28542, 605, -246, 765, 14210, 36680, -43190, -246, 307, -714, 994.26, 24.31, 100.0
28554, 538, -205, 779, 14140, 31290, -45780, -246, 307, -714, 994.26, 24.31, 100.0
28558, 527, -186, 782, 14140, 31290, -45780, -255, 307, -714, 994.26, 24.31, 100.0
28562, 548, -162, 773, 14140, 31290, -45780, -255, 307, -714, 994.18, 24.31, 100.0
28574, 545, -132, 768, 11690, 24780, -45850, -255, 307, -714, 994.18, 24.31, 100.0
28578, 546, -119, 769, 11690, 24780, -45850, -259, 309, -715, 994.18, 24.31, 100.0
28582, 548, -118, 772, 11690, 24780, -45850, -259, 309, -715, 994.20, 24.31, 100.0
28594, 571, -96, 776, 7560, 16240, -41860, -259, 309, -715, 994.20, 24.29, 100.0
28598, 574, -84, 778, 7560, 16240, -41860, -258, 307, -717, 994.20, 24.29, 100.0
28602, 576, -84, 781, 1330, 10290, -38430, -258, 307, -717, 994.19, 24.29, 100.0
28614, 596, -96, 781, 1330, 10290, -38430, -258, 307, -717, 994.19, 24.29, 100.0
28618, 627, -112, 771, 1330, 10290, -38430, -273, 303, -718, 994.19, 24.29, 100.0
28622, 632, -97, 773, -3290, 7070, -37030, -273, 303, -718, 994.14, 24.29, 100.0
28634, 648, -79, 766, -3290, 7070, -37030, -273, 303, -718, 994.14, 24.29, 100.0
28638, 656, -78, 761, -3290, 7070, -37030, -273, 303, -715, 994.14, 24.29, 100.0
28642, 662, -67, 759, -3780, 5530, -35840, -273, 303, -715, 994.13, 24.29, 100.0
28654, 674, -48, 756, -3780, 5530, -35840, -279, 306, -726, 994.13, 24.29, 100.0
28658, 680, -41, 754, -3780, 5530, -35840, -279, 306, -726, 994.13, 24.29, 100.0
28662, 685, -29, 754, -3500, 5530, -34230, -279, 306, -726, 994.11, 24.29, 100.0
28674, 688, -15, 744, -3500, 5530, -34230, -274, 300, -715, 994.11, 24.29, 100.0
28678, 672, -29, 744, -4690, 6020, -31010, -274, 300, -715, 994.11, 24.29, 100.0
28682, 669, -33, 744, -4690, 6020, -31010, -274, 300, -715, 994.10, 24.29, 100.0
28694, 650, -71, 754, -4690, 6020, -31010, -282, 301, -723, 994.10, 24.29, 100.0
28698, 659, -88, 749, -10010, 5810, -33250, -282, 301, -723, 994.10, 24.29, 100.0
28702, 683, -119, 745, -10010, 5810, -33250, -282, 301, -723, 994.10, 24.29, 100.0
28714, 744, -194, 730, -10010, 5810, -33250, -276, 297, -717, 994.10, 24.29, 100.0
28718, 806, -251, 720, -15050, 2310, -38640, -276, 297, -717, 994.10, 24.29, 100.0
28722, 831, -262, 719, -15050, 2310, -38640, -276, 297, -717, 994.14, 24.29, 100.0
28734, 753, -209, 740, -15050, 2310, -38640, -286, 294, -721, 994.14, 24.29, 100.0
28738, 715, -167, 761, -11970, 4900, -41650, -286, 294, -721, 994.14, 24.29, 100.0
28742, 391, -398, 742, -11970, 4900, -41650, -286, 294, -721, 994.11, 24.29, 100.0
28754, 725, -365, 736, -5040, 11620, -54180, -289, 297, -724, 994.11, 24.29, 100.0
28758, 810, -461, 798, -5040, 11620, -54180, -289, 297, -724, 994.11, 24.29, 100.0
28762, 748, -340, 739, -5040, 11620, -54180, -289, 297, -724, 994.10, 24.29, 100.0
28774, 665, -167, 740, -630, 5250, -67760, -292, 292, -723, 994.10, 24.29, 100.0
28778, 672, -159, 731, -630, 5250, -67760, -292, 292, -723, 994.10, 24.29, 100.0
28782, 650, -135, 742, -630, 5250, -67760, -292, 292, -723, 994.12, 24.29, 100.0
28794, 657, -92, 723, 8120, 7630, -72380, -304, 291, -718, 994.12, 24.29, 100.0
28798, 608, -125, 715, 8120, 7630, -72380, -304, 291, -718, 994.12, 24.29, 100.0
28802, 574, -125, 722, 8120, 7630, -72380, -304, 291, -718, 994.05, 24.29, 100.0
28814, 634, -68, 716, 6160, 3920, -68670, -321, 289, -724, 994.05, 24.29, 100.0
28818, 685, -23, 714, 6160, 3920, -68670, -321, 289, -724, 994.05, 24.29, 100.0
28822, 702, -9, 696, 6160, 3920, -68670, -321, 289, -724, 994.07, 24.29, 100.0
28834, 707, 2, 728, 3990, -1750, -61600, -331, 280, -721, 994.07, 24.27, 100.0
28838, 676, 3, 727, 3990, -1750, -61600, -331, 280, -721, 994.07, 24.27, 100.0
28842, 630, 48, 745, 3990, -1750, -61600, -331, 280, -721, 994.05, 24.27, 100.0
28854, 708, -72, 737, -280, -490, -61110, -333, 273, -726, 994.05, 24.27, 100.0
28858, 756, -90, 738, -280, -490, -61110, -333, 273, -726, 994.05, 24.27, 100.0
28862, 780, -74, 737, -280, -490, -61110, -333, 273, -726, 994.03, 24.27, 100.0
28874, 820, -54, 745, -5390, -1470, -63560, -334, 277, -724, 994.03, 24.27, 100.0
28878, 834, -96, 754, -5390, -1470, -63560, -334, 277, -724, 994.03, 24.27, 100.0
28882, 861, -147, 771, -5390, -1470, -63560, -334, 277, -724, 994.04, 24.27, 100.0
28894, 845, -140, 786, -3640, 3920, -65380, -351, 271, -721, 994.04, 24.27, 100.0
28898, 836, -103, 792, -3640, 3920, -65380, -351, 271, -721, 994.04, 24.27, 100.0
28902, 823, -89, 797, -3640, 3920, -65380, -351, 271, -721, 994.06, 24.29, 100.0
28914, 807, -18, 834, 3290, 15400, -67200, -361, 271, -727, 994.06, 24.29, 100.0
28918, 801, -26, 840, 3290, 15400, -67200, -361, 271, -727, 994.06, 24.29, 100.0
28922, 788, -53, 835, 3290, 15400, -67200, -361, 271, -727, 994.04, 24.29, 100.0
28934, 772, -118, 814, 8050, 24150, -73150, -370, 270, -726, 994.04, 24.29, 100.0
28938, 784, -114, 814, 8050, 24150, -73150, -370, 270, -726, 994.04, 24.29, 100.0
28942, 797, -108, 808, 8050, 24150, -73150, -370, 270, -726, 994.03, 24.29, 100.0
28954, 739, 33, 822, 5460, 28140, -85890, -388, 279, -732, 994.03, 24.29, 100.0
28958, 725, 58, 833, 5460, 28140, -85890, -388, 279, -732, 994.03, 24.29, 100.0
28962, 734, 55, 838, 9030, 33320, -99330, -388, 279, -732, 994.02, 24.29, 100.0
28974, 764, 60, 834, 9030, 33320, -99330, -397, 276, -736, 994.02, 24.29, 100.0
28978, 777, 63, 832, 9030, 33320, -99330, -397, 276, -736, 994.02, 24.29, 100.0
28982, 812, 58, 826, 7840, 36540, -105350, -397, 276, -736, 994.06, 24.33, 100.0
28994, 886, 67, 786, 7840, 36540, -105350, -415, 274, -741, 994.06, 24.33, 100.0
28998, 894, 68, 779, 7840, 36540, -105350, -415, 274, -741, 994.06, 24.33, 100.0
29002, 894, 72, 771, 9170, 42210, -110180, -415, 274, -741, 994.06, 24.33, 100.0
29014, 798, 96, 753, 9170, 42210, -110180, -424, 277, -745, 994.06, 24.33, 100.0
29018, 770, 106, 754, 9170, 42210, -110180, -424, 277, -745, 994.06, 24.33, 100.0
29022, 725, 141, 760, 16030, 59570, -118300, -424, 277, -745, 994.02, 24.33, 100.0
29034, 588, 228, 780, 16030, 59570, -118300, -444, 292, -765, 994.02, 24.33, 100.0
29038, 543, 233, 784, 22540, 76300, -123060, -444, 292, -765, 994.02, 24.33, 100.0
29042, 521, 237, 789, 22540, 76300, -123060, -444, 292, -765, 993.97, 24.33, 100.0
29054, 422, 183, 788, 22540, 76300, -123060, -462, 307, -768, 993.97, 24.33, 100.0
29058, 390, 193, 806, 20090, 80570, -121520, -462, 307, -768, 993.97, 24.29, 100.0
29062, 340, 191, 806, 20090, 80570, -121520, -481, 312, -777, 993.96, 24.29, 100.0
29074, 311, 265, 842, 20090, 80570, -121520, -481, 312, -777, 993.96, 24.29, 100.0
29078, 273, 219, 824, 15890, 74830, -115920, -481, 312, -777, 993.96, 24.29, 100.0
29082, 250, 205, 823, 15890, 74830, -115920, -498, 333, -781, 994.00, 24.29, 100.0
29094, 159, 227, 838, 15890, 74830, -115920, -498, 333, -781, 994.00, 24.29, 100.0
29098, 145, 211, 816, 13300, 64890, -110180, -498, 333, -781, 994.00, 24.29, 100.0
29102, 157, 215, 790, 13300, 64890, -110180, -514, 340, -787, 993.92, 24.29, 100.0
29114, 207, 311, 766, 16240, 53620, -103110, -514, 340, -787, 993.92, 24.29, 100.0
29118, 214, 337, 765, 16240, 53620, -103110, -514, 340, -787, 993.92, 24.29, 100.0
29122, 221, 387, 731, 16240, 53620, -103110, -528, 351, -781, 993.84, 24.29, 100.0
29134, 149, 542, 767, 20860, 44800, -87780, -528, 351, -781, 993.84, 24.29, 100.0
29138, 112, 578, 762, 20860, 44800, -87780, -528, 351, -781, 993.84, 24.29, 100.0
29142, 102, 544, 775, 20860, 44800, -87780, -531, 351, -798, 993.90, 24.29, 100.0
29154, 100, 454, 815, 15260, 39550, -73220, -531, 351, -798, 993.90, 24.29, 100.0
29158, 88, 443, 833, 15260, 39550, -73220, -531, 351, -798, 993.90, 24.29, 100.0
29162, 54, 424, 850, 15260, 39550, -73220, -549, 360, -804, 993.83, 24.29, 100.0
29174, -13, 436, 873, 4620, 28560, -68180, -549, 360, -804, 993.83, 24.29, 100.0
29178, -32, 442, 876, 4620, 28560, -68180, -549, 360, -804, 993.83, 24.29, 100.0
29182, -38, 440, 876, 4620, 28560, -68180, -549, 364, -799, 993.85, 24.29, 100.0
29194, -44, 467, 871, 4060, 14210, -74550, -549, 364, -799, 993.85, 24.29, 100.0
29198, -43, 487, 862, 4060, 14210, -74550, -564, 370, -811, 993.85, 24.29, 100.0
29202, -41, 495, 854, 4060, 14210, -74550, -564, 370, -811, 993.85, 24.29, 100.0
29214, 30, 492, 846, 3430, -5390, -77280, -564, 370, -811, 993.85, 24.27, 100.0
29218, 63, 493, 846, 3430, -5390, -77280, -573, 369, -792, 993.85, 24.27, 100.0
29222, 78, 498, 854, 3430, -5390, -77280, -573, 369, -792, 993.84, 24.27, 100.0
29234, 101, 437, 846, -1050, -23730, -68810, -573, 369, -792, 993.84, 24.27, 100.0
29238, 197, 478, 887, -1050, -23730, -68810, -570, 369, -796, 993.84, 24.27, 100.0
29242, 178, 496, 867, -1050, -23730, -68810, -570, 369, -796, 993.87, 24.27, 100.0
29254, 144, 391, 894, -11060, -32550, -62580, -570, 369, -796, 993.87, 24.27, 100.0
29258, 157, 390, 889, -11060, -32550, -62580, -573, 357, -801, 993.87, 24.27, 100.0
29262, 195, 341, 881, -11060, -32550, -62580, -573, 357, -801, 993.89, 24.27, 100.0
29274, 218, 368, 887, -19950, -34930, -56910, -573, 357, -801, 993.89, 24.27, 100.0
29278, 214, 362, 888, -19950, -34930, -56910, -564, 343, -784, 993.89, 24.27, 100.0
29282, 223, 323, 884, -19950, -34930, -56910, -564, 343, -784, 993.92, 24.27, 100.0
29294, 301, 286, 864, -20090, -37800, -44380, -564, 343, -784, 993.92, 24.27, 100.0
29298, 321, 294, 854, -20090, -37800, -44380, -562, 337, -783, 993.92, 24.27, 100.0
29302, 355, 302, 834, -20090, -37800, -44380, -562, 337, -783, 994.00, 24.27, 100.0
29314, 380, 348, 843, -16730, -41370, -26880, -562, 337, -783, 994.00, 24.27, 100.0
29318, 391, 366, 851, -16730, -41370, -26880, -564, 340, -777, 994.00, 24.27, 100.0
29322, 402, 373, 849, -16730, -41370, -12180, -564, 340, -777, 994.03, 24.27, 100.0
29334, 445, 377, 844, -11830, -41580, -12180, -568, 324, -781, 994.03, 24.27, 100.0
29338, 452, 378, 842, -11830, -41580, -12180, -568, 324, -781, 994.03, 24.27, 100.0
29342, 458, 395, 832, -11760, -41090, -2940, -568, 324, -781, 993.99, 24.27, 100.0
29354, 468, 460, 827, -11760, -41090, -2940, -565, 325, -781, 993.99, 24.27, 100.0
29358, 499, 460, 850, -11760, -41090, -2940, -565, 325, -781, 993.99, 24.27, 100.0
29362, 505, 473, 832, -12530, -40670, 3990, -565, 325, -781, 994.02, 24.27, 100.0
29374, 587, 402, 817, -12530, -40670, 3990, -567, 325, -777, 994.02, 24.29, 100.0
29378, 591, 422, 788, -12530, -40670, 3990, -567, 325, -777, 994.02, 24.29, 100.0
29382, 584, 434, 790, -16800, -38360, 9660, -567, 325, -777, 994.06, 24.29, 100.0
29394, 627, 397, 800, -16800, -38360, 9660, -556, 319, -774, 994.06, 24.29, 100.0
29398, 656, 376, 799, -22820, -29890, 10360, -556, 319, -774, 994.06, 24.29, 100.0
29402, 661, 357, 796, -22820, -29890, 10360, -556, 319, -774, 994.09, 24.29, 100.0
29414, 659, 301, 792, -22820, -29890, 10360, -553, 309, -768, 994.09, 24.29, 100.0
29418, 642, 314, 800, -26530, -17360, 6580, -553, 309, -768, 994.09, 24.29, 100.0
29422, 636, 307, 794, -26530, -17360, 6580, -553, 309, -768, 994.11, 24.29, 100.0
29434, 644, 275, 807, -26530, -17360, 6580, -547, 313, -769, 994.11, 24.29, 100.0
29438, 636, 277, 807, -23100, -980, 2030, -547, 313, -769, 994.11, 24.29, 100.0
29442, 623, 284, 810, -23100, -980, 2030, -547, 313, -769, 994.10, 24.29, 100.0
29454, 610, 308, 827, -23100, -980, 2030, -546, 313, -777, 994.10, 24.31, 100.0
29458, 603, 306, 834, -16940, 14700, 350, -546, 313, -777, 994.10, 24.31, 100.0
29462, 592, 305, 836, -16940, 14700, 350, -546, 313, -777, 994.10, 24.31, 100.0
29474, 552, 291, 843, -12250, 29260, 3010, -541, 316, -774, 994.10, 24.31, 100.0
29478, 528, 294, 847, -12250, 29260, 3010, -541, 316, -774, 994.10, 24.31, 100.0
29482, 477, 308, 849, -12250, 29260, 3010, -541, 316, -774, 994.11, 24.31, 100.0
29494, 421, 286, 856, -7700, 41160, 8120, -529, 325, -775, 994.11, 24.31, 100.0
29498, 402, 294, 864, -7700, 41160, 8120, -529, 325, -775, 994.11, 24.31, 100.0
29502, 394, 303, 867, -7700, 41160, 8120, -529, 325, -775, 994.12, 24.31, 100.0
29514, 314, 333, 881, -3710, 45570, 11970, -538, 333, -796, 994.12, 24.31, 100.0
29518, 291, 349, 886, -3710, 45570, 11970, -538, 333, -796, 994.12, 24.31, 100.0
29522, 275, 338, 889, -3710, 45570, 11970, -538, 333, -796, 994.12, 24.31, 100.0
29534, 229, 320, 895, -700, 44100, 12390, -531, 340, -789, 994.12, 24.31, 100.0
29538, 211, 337, 890, -700, 44100, 12390, -531, 340, -789, 994.12, 24.31, 100.0
29542, 215, 343, 876, -700, 44100, 12390, -531, 340, -789, 994.11, 24.31, 100.0
29554, 254, 308, 858, 1400, 37100, 10640, -532, 346, -795, 994.11, 24.31, 100.0
29558, 254, 298, 854, 1400, 37100, 10640, -532, 346, -795, 994.11, 24.31, 100.0
29562, 240, 296, 880, 1400, 37100, 10640, -532, 346, -795, 994.09, 24.31, 100.0
29574, 214, 339, 930, 2730, 29400, 7770, -537, 360, -801, 994.09, 24.31, 100.0
29578, 210, 341, 926, 2730, 29400, 7770, -537, 360, -801, 994.09, 24.31, 100.0
29582, 202, 337, 931, 2730, 29400, 7770, -537, 360, -801, 994.04, 24.31, 100.0
29594, 207, 293, 920, 4550, 23310, 1330, -529, 361, -795, 994.04, 24.31, 100.0
29598, 230, 249, 904, 4550, 23310, 1330, -529, 361, -795, 994.04, 24.31, 100.0
29602, 261, 214, 925, 4550, 23310, 1330, -529, 361, -795, 994.00, 24.31, 100.0
29614, 221, 199, 960, 3430, 12110, -6580, -525, 361, -795, 994.00, 24.29, 100.0
29618, 184, 199, 983, 3430, 12110, -6580, -525, 361, -795, 994.00, 24.29, 100.0
29622, 193, 185, 983, 3430, 12110, -6580, -525, 361, -795, 993.99, 24.29, 100.0
29634, 371, 130, 969, 3570, 2380, -20440, -535, 364, -801, 993.99, 24.29, 100.0
29638, 353, 154, 966, 3570, 2380, -20440, -535, 364, -801, 993.99, 24.29, 100.0
29642, 333, 177, 964, 3570, 2380, -20440, -535, 364, -801, 993.96, 24.29, 100.0
29654, 291, 255, 948, 6160, -5250, -40600, -540, 355, -795, 993.96, 24.29, 100.0
29658, 296, 281, 945, 6160, -5250, -40600, -540, 355, -795, 993.96, 24.29, 100.0
29662, 313, 306, 938, 6160, -5250, -40600, -540, 355, -795, 993.94, 24.29, 100.0
29674, 353, 354, 923, 13860, -6090, -47600, -550, 363, -793, 993.94, 24.29, 100.0
29678, 374, 357, 918, 13860, -6090, -47600, -550, 363, -793, 993.94, 24.29, 100.0
29682, 382, 369, 917, 13860, -6090, -47600, -550, 363, -793, 993.98, 24.31, 100.0
29694, 402, 405, 911, 13300, -9940, -43890, -547, 360, -801, 993.98, 24.31, 100.0
29698, 411, 412, 906, 13300, -9940, -43890, -547, 360, -801, 993.98, 24.31, 100.0
29702, 439, 403, 902, 7560, -8190, -34790, -547, 360, -801, 993.97, 24.31, 100.0
29714, 378, 482, 926, 7560, -8190, -34790, -561, 358, -792, 993.97, 24.31, 100.0
29718, 386, 472, 924, 7560, -8190, -34790, -561, 358, -792, 993.97, 24.31, 100.0
29722, 406, 432, 927, -1120, -700, -27510, -561, 358, -790, 993.97, 24.31, 100.0
29734, 391, 384, 933, -1120, -700, -27510, -561, 358, -790, 993.97, 24.31, 100.0
29738, 357, 405, 934, -1120, -700, -27510, -561, 358, -790, 993.97, 24.31, 100.0
29742, 335, 412, 934, -11480, 7770, -23870, -552, 372, -790, 993.97, 24.31, 100.0
29754, 299, 327, 957, -11480, 7770, -23870, -552, 372, -790, 993.97, 24.31, 100.0
29758, 308, 320, 961, -11480, 7770, -23870, -552, 372, -790, 993.97, 24.31, 100.0
29762, 272, 332, 961, -19460, 15540, -22890, -556, 367, -802, 993.93, 24.29, 100.0
29774, 289, 271, 956, -19460, 15540, -22890, -556, 367, -802, 993.93, 24.29, 100.0
29778, 283, 247, 952, -26600, 16870, -20790, -556, 367, -802, 993.93, 24.29, 100.0
29782, 278, 241, 959, -26600, 16870, -20790, -555, 375, -799, 993.96, 24.29, 100.0
29794, 291, 254, 994, -26600, 16870, -20790, -555, 375, -799, 993.96, 24.29, 100.0
29798, 289, 265, 1001, -28840, 15120, -19250, -555, 375, -799, 993.96, 24.29, 100.0
29802, 294, 272, 1002, -28840, 15120, -19250, -552, 376, -795, 993.91, 24.29, 100.0
29814, 308, 244, 1002, -28840, 15120, -19250, -552, 376, -795, 993.91, 24.29, 100.0
29818, 322, 200, 997, -27440, 12390, -18270, -552, 376, -795, 993.91, 24.29, 100.0
29822, 329, 178, 991, -27440, 12390, -18270, -541, 378, -807, 993.98, 24.29, 100.0
29834, 328, 116, 945, -27440, 12390, -18270, -541, 378, -807, 993.98, 24.29, 100.0
29838, 326, 104, 924, -26880, 10220, -19880, -541, 378, -807, 993.98, 24.33, 100.0
29842, 324, 101, 917, -26880, 10220, -19880, -552, 381, -807, 993.95, 24.33, 100.0
29854, 311, 130, 913, -19600, 13720, -23870, -552, 381, -807, 993.95, 24.33, 100.0
29858, 295, 143, 921, -19600, 13720, -23870, -552, 376, -802, 993.95, 24.33, 100.0
29862, 286, 145, 919, -19600, 13720, -23870, -546, 376, -802, 993.95, 24.33, 100.0
29874, 269, 151, 911, -12110, 21350, -26670, -546, 376, -802, 993.95, 24.33, 100.0
29878, 270, 160, 907, -12110, 21350, -26670, -552, 387, -813, 993.95, 24.33, 100.0
29882, 263, 169, 909, -12110, 21350, -26670, -552, 387, -813, 993.96, 24.33, 100.0
29894, 231, 216, 912, -7210, 28630, -29120, -552, 387, -813, 993.96, 24.33, 100.0
29898, 220, 210, 907, -7210, 28630, -29120, -544, 388, -810, 993.96, 24.33, 100.0
29902, 227, 218, 911, -7210, 28630, -29120, -544, 388, -810, 993.94, 24.33, 100.0
29914, 218, 193, 924, -4410, 34510, -30730, -544, 388, -810, 993.94, 24.33, 100.0
29918, 210, 187, 922, -4410, 34510, -30730, -541, 400, -822, 993.94, 24.33, 100.0
29922, 201, 174, 933, -4410, 34510, -30730, -541, 400, -822, 993.94, 24.33, 100.0
29934, 155, 206, 933, -2030, 36680, -30590, -541, 400, -822, 993.94, 24.33, 100.0
29938, 149, 216, 938, -2030, 36680, -30590, -558, 406, -819, 993.94, 24.33, 100.0
29942, 138, 234, 944, -2030, 36680, -30590, -558, 406, -819, 993.93, 24.33, 100.0
29954, 124, 265, 963, 5040, 35700, -28350, -558, 406, -819, 993.93, 24.33, 100.0
29958, 121, 273, 973, 5040, 35700, -28350, -558, 427, -823, 993.93, 24.33, 100.0
29962, 120, 274, 978, 5040, 35700, -28350, -558, 427, -823, 993.90, 24.33, 100.0
29974, 144, 267, 983, 9240, 30100, -22610, -558, 427, -823, 993.90, 24.33, 100.0
29978, 157, 259, 976, 9240, 30100, -22610, -553, 418, -823, 993.90, 24.33, 100.0
29982, 168, 241, 973, 9240, 30100, -22610, -553, 418, -823, 993.91, 24.33, 100.0
29994, 170, 218, 972, 9240, 23240, -17220, -553, 418, -823, 993.91, 24.31, 100.0
29998, 151, 236, 988, 9240, 23240, -17220, -558, 421, -822, 993.91, 24.31, 100.0
30002, 139, 252, 990, 9240, 23240, -17220, -558, 421, -822, 993.89, 24.31, 100.0
30014, 123, 291, 998, 10430, 19530, -15120, -565, 414, -823, 993.89, 24.31, 100.0
30018, 129, 282, 995, 10430, 19530, -15120, -565, 414, -823, 993.89, 24.31, 100.0
30022, 132, 276, 991, 10430, 19530, -15120, -565, 414, -823, 993.87, 24.31, 100.0
30034, 123, 278, 987, 11550, 14420, -11130, -568, 427, -822, 993.87, 24.31, 100.0
30038, 123, 275, 985, 11550, 14420, -11130, -568, 427, -822, 993.87, 24.31, 100.0
30042, 122, 266, 977, 11550, 14420, -11130, -568, 427, -822, 993.88, 24.31, 100.0
30054, 141, 208, 963, 6580, 4830, -4550, -564, 432, -823, 993.88, 24.31, 100.0
30058, 182, 156, 957, 6580, 4830, -4550, -564, 432, -823, 993.88, 24.31, 100.0
30062, 222, 118, 940, -490, -6510, 2450, -564, 432, -823, 993.88, 24.31, 100.0
30074, 273, 97, 947, -490, -6510, 2450, -567, 423, -819, 993.88, 24.33, 100.0
30078, 284, 87, 951, -490, -6510, 2450, -567, 423, -819, 993.88, 24.33, 100.0
30082, 305, 96, 944, -2730, -15190, 6650, -567, 423, -819, 993.90, 24.33, 100.0
30094, 325, 147, 967, -2730, -15190, 6650, -559, 427, -820, 993.90, 24.33, 100.0
30098, 327, 151, 971, -2730, -15190, 6650, -559, 427, -820, 993.90, 24.33, 100.0
30102, 325, 145, 968, 1120, -15610, 4620, -559, 427, -820, 993.88, 24.33, 100.0
30114, 337, 111, 953, 1120, -15610, 4620, -556, 418, -816, 993.88, 24.33, 100.0
30118, 339, 107, 957, 1120, -15610, 4620, -556, 418, -816, 993.88, 24.33, 100.0
30122, 347, 94, 951, 1190, -14070, 1960, -556, 418, -816, 993.87, 24.33, 100.0
30134, 351, 81, 946, 1190, -14070, 1960, -559, 414, -819, 993.87, 24.33, 100.0
30138, 354, 91, 947, 910, -13090, -700, -559, 414, -819, 993.87, 24.33, 100.0
30142, 359, 95, 942, 910, -13090, -700, -559, 414, -819, 993.92, 24.33, 100.0
30154, 360, 98, 944, 910, -13090, -700, -562, 409, -814, 993.92, 24.31, 100.0
30158, 352, 101, 947, 2450, -11200, -5460, -562, 409, -814, 993.92, 24.31, 100.0
30162, 338, 110, 948, 2450, -11200, -5460, -562, 409, -814, 993.84, 24.31, 100.0
30174, 307, 144, 957, 2450, -11200, -5460, -564, 417, -822, 993.84, 24.31, 100.0
30178, 304, 157, 963, 3150, -8680, -9450, -564, 417, -822, 993.84, 24.31, 100.0
30182, 305, 164, 963, 3150, -8680, -9450, -564, 417, -822, 993.84, 24.31, 100.0
30194, 312, 177, 980, 3150, -8680, -9450, -562, 412, -817, 993.84, 24.31, 100.0
30198, 316, 171, 986, 2730, -8890, -11130, -562, 412, -817, 993.84, 24.31, 100.0
30202, 316, 170, 994, 2730, -8890, -11130, -562, 412, -817, 993.84, 24.31, 100.0
30214, 307, 175, 1003, 560, -9800, -11550, -564, 412, -816, 993.84, 24.31, 100.0
30218, 308, 176, 1002, 560, -9800, -11550, -564, 412, -816, 993.84, 24.31, 100.0
30222, 305, 185, 1001, 560, -9800, -11550, -564, 412, -816, 993.81, 24.31, 100.0
30234, 306, 187, 998, 280, -9730, -11480, -558, 412, -819, 993.81, 24.35, 100.0
30238, 309, 188, 996, 280, -9730, -11480, -558, 412, -819, 993.81, 24.35, 100.0
30242, 308, 195, 995, 280, -9730, -11480, -558, 412, -819, 993.82, 24.35, 100.0
30254, 304, 200, 990, 770, -9660, -9170, -562, 408, -814, 993.82, 24.35, 100.0
30258, 303, 202, 991, 770, -9660, -9170, -562, 408, -814, 993.82, 24.35, 100.0
30262, 304, 199, 986, 770, -9660, -9170, -562, 408, -814, 993.85, 24.35, 100.0
30274, 304, 208, 984, 1680, -8610, -6020, -565, 408, -813, 993.85, 24.35, 100.0
30278, 308, 202, 981, 1680, -8610, -6020, -565, 408, -813, 993.85, 24.35, 100.0
30282, 311, 202, 985, 1680, -8610, -6020, -565, 408, -813, 993.82, 24.35, 100.0
30294, 305, 207, 979, 2310, -7000, -4550, -561, 414, -814, 993.82, 24.35, 100.0
30298, 299, 205, 979, 2310, -7000, -4550, -561, 414, -814, 993.82, 24.35, 100.0
30302, 293, 201, 982, 2310, -7000, -4550, -561, 414, -814, 993.89, 24.35, 100.0
30314, 283, 209, 983, 2590, -4970, -5110, -565, 406, -820, 993.89, 24.33, 100.0
30318, 279, 209, 980, 2590, -4970, -5110, -565, 406, -820, 993.89, 24.33, 100.0
30322, 276, 208, 978, 2590, -4970, -5110, -565, 406, -820, 993.88, 24.33, 100.0
30334, 274, 212, 970, 3010, -4200, -6370, -567, 411, -814, 993.88, 24.33, 100.0
30338, 273, 215, 969, 3010, -4200, -6370, -567, 411, -814, 993.88, 24.33, 100.0
30342, 272, 220, 960, 3010, -4200, -6370, -567, 411, -814, 993.91, 24.33, 100.0
30354, 273, 222, 965, 3990, -5110, -7070, -558, 400, -811, 993.91, 24.33, 100.0
30358, 279, 220, 957, 3990, -5110, -7070, -558, 400, -811, 993.91, 24.33, 100.0
30362, 282, 220, 955, 3990, -5110, -7070, -558, 400, -811, 993.90, 24.33, 100.0
30374, 284, 209, 938, 4690, -6510, -7280, -567, 405, -813, 993.90, 24.33, 100.0
30378, 284, 215, 934, 4690, -6510, -7280, -567, 405, -813, 993.90, 24.33, 100.0
30382, 288, 212, 933, 4690, -6510, -7280, -567, 405, -813, 993.83, 24.33, 100.0
30394, 294, 225, 928, 5950, -7000, -6370, -568, 402, -807, 993.83, 24.33, 100.0
30398, 294, 228, 926, 5950, -7000, -6370, -568, 402, -807, 993.83, 24.33, 100.0
30402, 293, 234, 934, 5950, -7000, -6370, -574, 411, -811, 993.81, 24.33, 100.0
30414, 288, 252, 931, 8050, -5740, -4760, -574, 411, -811, 993.81, 24.33, 100.0
30418, 286, 262, 930, 8050, -5740, -4760, -574, 411, -811, 993.81, 24.33, 100.0
30422, 284, 265, 932, 8050, -5740, -4760, -570, 393, -805, 993.80, 24.33, 100.0
30434, 266, 289, 932, 9520, -3010, -3290, -570, 393, -805, 993.80, 24.33, 100.0
30438, 263, 297, 935, 9520, -3010, -3290, -570, 393, -805, 993.80, 24.33, 100.0
30442, 256, 302, 935, 9800, 0, -1540, -580, 400, -805, 993.83, 24.33, 100.0
30454, 237, 295, 928, 9800, 0, -1540, -580, 400, -805, 993.83, 24.33, 100.0
30458, 236, 289, 926, 9800, 0, -1540, -580, 400, -805, 993.83, 24.33, 100.0
30462, 235, 286, 928, 8120, 1820, 490, -570, 399, -808, 993.85, 24.31, 100.0
30474, 230, 279, 926, 8120, 1820, 490, -570, 399, -808, 993.85, 24.31, 100.0
30478, 224, 280, 926, 8120, 1820, 490, -570, 399, -808, 993.85, 24.31, 100.0
30482, 222, 280, 927, 6160, 1890, 3010, -576, 406, -801, 993.89, 24.31, 100.0
30494, 216, 279, 931, 6160, 1890, 3010, -576, 406, -801, 993.89, 24.31, 100.0
30498, 215, 280, 933, 5460, 1260, 5390, -576, 406, -801, 993.89, 24.31, 100.0
30502, 215, 286, 933, 5460, 1260, 5390, -574, 412, -801, 993.90, 24.31, 100.0
30514, 215, 283, 944, 5460, 1260, 5390, -574, 412, -801, 993.90, 24.31, 100.0
30518, 214, 286, 944, 4620, -280, 7630, -574, 412, -801, 993.90, 24.31, 100.0
30522, 214, 287, 950, 4620, -280, 7630, -570, 406, -807, 993.91, 24.31, 100.0
30534, 218, 285, 953, 4620, -280, 7630, -570, 406, -807, 993.91, 24.31, 100.0
30538, 220, 282, 953, 3570, -2170, 9240, -570, 406, -808, 993.91, 24.35, 100.0
30542, 226, 275, 956, 3570, -2170, 9240, -570, 406, -808, 993.84, 24.35, 100.0
30554, 235, 259, 958, 3570, -2170, 9240, -570, 406, -808, 993.84, 24.35, 100.0
30558, 241, 253, 958, 2100, -4410, 9380, -571, 409, -811, 993.84, 24.35, 100.0
30562, 243, 250, 957, 2100, -4410, 9380, -571, 409, -811, 993.90, 24.35, 100.0
30574, 255, 243, 961, 1190, -5950, 7770, -571, 409, -811, 993.90, 24.35, 100.0
30578, 256, 242, 961, 1190, -5950, 7770, -567, 402, -808, 993.90, 24.35, 100.0
30582, 258, 243, 961, 1190, -5950, 7770, -567, 402, -808, 993.89, 24.35, 100.0
30594, 258, 243, 962, 1190, -6720, 5390, -567, 402, -808, 993.89, 24.35, 100.0
30598, 260, 237, 960, 1190, -6720, 5390, -574, 397, -805, 993.89, 24.35, 100.0
30602, 260, 238, 958, 1190, -6720, 5390, -574, 397, -805, 993.88, 24.35, 100.0
30614, 264, 236, 956, 1400, -7000, 4130, -574, 397, -805, 993.88, 24.35, 100.0
30618, 266, 241, 960, 1400, -7000, 4130, -567, 403, -807, 993.88, 24.33, 100.0
30622, 267, 247, 961, 1400, -7000, 4130, -567, 403, -807, 993.84, 24.33, 100.0
30634, 274, 253, 965, 2100, -7070, 4760, -567, 403, -807, 993.84, 24.33, 100.0
30638, 276, 251, 970, 2100, -7070, 4760, -565, 393, -808, 993.84, 24.33, 100.0
30642, 277, 250, 969, 2100, -7070, 4760, -565, 393, -808, 993.86, 24.33, 100.0
30654, 279, 245, 970, 2240, -6440, 6650, -565, 393, -808, 993.86, 24.33, 100.0
30658, 278, 241, 970, 2240, -6440, 6650, -574, 406, -802, 993.86, 24.33, 100.0
30662, 278, 240, 971, 2240, -6440, 6650, -574, 406, -802, 993.86, 24.33, 100.0
30674, 279, 235, 969, 2030, -4900, 7910, -564, 406, -798, 993.86, 24.33, 100.0
30678, 277, 234, 969, 2030, -4900, 7910, -564, 406, -798, 993.86, 24.33, 100.0
30682, 275, 235, 968, 2030, -4900, 7910, -564, 406, -798, 993.88, 24.33, 100.0
30694, 261, 238, 963, 2520, -3080, 8610, -568, 406, -808, 993.88, 24.33, 100.0
30698, 261, 240, 958, 2520, -3080, 8610, -568, 406, -808, 993.88, 24.33, 100.0
30702, 258, 241, 956, 2520, -3080, 8610, -568, 406, -808, 993.86, 24.33, 100.0
30714, 259, 234, 949, 3570, -1750, 9590, -567, 391, -817, 993.86, 24.33, 100.0
30718, 260, 235, 947, 3570, -1750, 9590, -567, 391, -817, 993.86, 24.33, 100.0
30722, 261, 232, 944, 3570, -1750, 9590, -567, 391, -817, 993.86, 24.33, 100.0
30734, 273, 229, 944, 3850, -1540, 10780, -564, 396, -802, 993.86, 24.33, 100.0
30738, 276, 227, 948, 3850, -1540, 10780, -564, 396, -802, 993.86, 24.33, 100.0
30742, 278, 226, 948, 3850, -1540, 10780, -564, 396, -802, 993.92, 24.33, 100.0
30754, 277, 231, 954, 3780, -1470, 10500, -564, 396, -801, 993.92, 24.33, 100.0
30758, 277, 234, 956, 3780, -1470, 10500, -564, 396, -801, 993.92, 24.33, 100.0
30762, 277, 232, 957, 3780, -1470, 10500, -564, 396, -801, 993.93, 24.33, 100.0
30774, 272, 232, 957, 3710, -980, 7910, -562, 403, -805, 993.93, 24.33, 100.0
30778, 273, 230, 956, 3710, -980, 7910, -562, 403, -805, 993.93, 24.33, 100.0
30782, 274, 231, 955, 3710, -980, 7910, -562, 403, -805, 993.94, 24.33, 100.0
30794, 273, 233, 950, 3640, -910, 4900, -564, 397, -802, 993.94, 24.33, 100.0
30798, 277, 232, 942, 3640, -910, 4900, -564, 397, -802, 993.94, 24.33, 100.0
30802, 279, 229, 939, 4410, -1750, 3220, -564, 397, -802, 993.93, 24.33, 100.0
30814, 291, 232, 931, 4410, -1750, 3220, -562, 396, -807, 993.93, 24.33, 100.0
30818, 291, 234, 932, 4410, -1750, 3220, -562, 396, -807, 993.93, 24.33, 100.0
30822, 289, 244, 934, 5740, -2590, 2030, -562, 396, -807, 993.94, 24.33, 100.0
30834, 284, 260, 928, 5740, -2590, 2030, -561, 402, -799, 993.94, 24.33, 100.0
30838, 284, 264, 931, 5740, -2590, 2030, -561, 402, -799, 993.94, 24.33, 100.0
30842, 282, 271, 931, 7140, -2520, -770, -561, 402, -799, 993.92, 24.33, 100.0
30854, 265, 284, 932, 7140, -2520, -770, -565, 393, -811, 993.92, 24.33, 100.0
30858, 256, 281, 934, 7140, -2520, -770, -565, 393, -811, 993.92, 24.33, 100.0
30862, 280, 284, 930, 7770, -2660, -4340, -565, 393, -811, 993.86, 24.33, 100.0
30874, 302, 263, 931, 7770, -2660, -4340, -562, 397, -808, 993.86, 24.33, 100.0
30878, 303, 264, 933, 7350, -3920, -6860, -562, 397, -808, 993.86, 24.33, 100.0
30882, 305, 269, 932, 7350, -3920, -6860, -562, 397, -808, 993.82, 24.33, 100.0
30894, 307, 277, 940, 7350, -3920, -6860, -558, 387, -802, 993.82, 24.33, 100.0
30898, 307, 280, 940, 7070, -3570, -7560, -558, 387, -802, 993.82, 24.33, 100.0
30902, 301, 290, 944, 7070, -3570, -7560, -558, 387, -802, 993.79, 24.33, 100.0
30914, 273, 300, 941, 7070, -3570, -7560, -573, 402, -811, 993.79, 24.33, 100.0
30918, 271, 309, 938, 6510, -2240, -7140, -573, 402, -811, 993.79, 24.33, 100.0
30922, 269, 310, 935, 6510, -2240, -7140, -573, 402, -811, 993.81, 24.33, 100.0
30934, 259, 306, 934, 6510, -2240, -7140, -570, 400, -801, 993.81, 24.35, 100.0
30938, 260, 307, 934, 4830, -1680, -6300, -570, 400, -801, 993.81, 24.35, 100.0
30942, 258, 305, 932, 4830, -1680, -6300, -570, 400, -801, 993.83, 24.35, 100.0
30954, 251, 299, 930, 3150, -1890, -5180, -568, 406, -802, 993.83, 24.35, 100.0
30958, 236, 313, 927, 3150, -1890, -5180, -568, 406, -802, 993.83, 24.35, 100.0
30962, 239, 315, 926, 3150, -1890, -5180, -568, 406, -802, 993.82, 24.35, 100.0
30974, 257, 301, 931, 2660, -2520, -4690, -573, 403, -805, 993.82, 24.35, 100.0
30978, 259, 293, 930, 2660, -2520, -4690, -573, 403, -805, 993.82, 24.35, 100.0
30982, 263, 295, 930, 2660, -2520, -4690, -573, 403, -805, 993.81, 24.35, 100.0
30994, 260, 302, 934, 2870, -3220, -3430, -564, 388, -799, 993.81, 24.35, 100.0
30998, 259, 305, 934, 2870, -3220, -3430, -564, 388, -799, 993.81, 24.35, 100.0
31002, 258, 308, 934, 2870, -3220, -3430, -564, 388, -799, 993.84, 24.35, 100.0
31014, 261, 308, 929, 3640, -3710, -1960, -565, 393, -802, 993.84, 24.33, 100.0
31018, 264, 309, 929, 3640, -3710, -1960, -565, 393, -802, 993.84, 24.33, 100.0
31022, 267, 308, 928, 3640, -3710, -1960, -565, 393, -802, 993.81, 24.33, 100.0
31034, 266, 314, 927, 3080, -5250, -350, -571, 399, -802, 993.81, 24.33, 100.0
31038, 265, 313, 930, 3080, -5250, -350, -571, 399, -802, 993.81, 24.33, 100.0
31042, 267, 312, 929, 3080, -5250, -350, -571, 399, -802, 993.81, 24.33, 100.0
31054, 279, 303, 926, 2030, -6300, 420, -565, 387, -805, 993.81, 24.33, 100.0
31058, 283, 298, 926, 2030, -6300, 420, -565, 387, -805, 993.81, 24.33, 100.0
31062, 289, 293, 925, 2030, -6300, 420, -565, 387, -805, 993.79, 24.33, 100.0
31074, 299, 281, 922, 770, -7140, 350, -568, 388, -802, 993.79, 24.33, 100.0
31078, 306, 276, 927, 770, -7140, 350, -568, 388, -802, 993.79, 24.33, 100.0
31082, 314, 275, 929, 770, -7140, 350, -582, 393, -796, 993.75, 24.33, 100.0
31094, 327, 273, 931, 840, -6510, 700, -582, 393, -796, 993.75, 24.35, 100.0
31098, 340, 269, 927, 840, -6510, 700, -582, 393, -796, 993.75, 24.35, 100.0
31102, 338, 267, 929, 840, -6510, 700, -574, 394, -805, 993.76, 24.35, 100.0
31114, 315, 275, 935, 1820, -3430, 1190, -574, 394, -805, 993.76, 24.35, 100.0
31118, 308, 284, 933, 1820, -3430, 1190, -574, 394, -805, 993.76, 24.35, 100.0
31122, 295, 291, 935, 1820, -3430, 1190, -568, 391, -802, 993.80, 24.35, 100.0
31134, 302, 288, 935, 2870, 1400, 1750, -568, 391, -802, 993.80, 24.35, 100.0
31138, 304, 287, 936, 2870, 1400, 1750, -568, 391, -802, 993.80, 24.35, 100.0
31142, 300, 287, 936, 2870, 1400, 1750, -564, 388, -814, 993.78, 24.35, 100.0
31154, 277, 298, 947, 3010, 4900, 1960, -564, 388, -814, 993.78, 24.35, 100.0
31158, 266, 306, 954, 3010, 4900, 1960, -564, 388, -814, 993.78, 24.35, 100.0
31162, 254, 311, 958, 2800, 8260, 2240, -576, 393, -811, 993.79, 24.33, 100.0
31174, 230, 321, 963, 2800, 8260, 2240, -576, 393, -811, 993.79, 24.33, 100.0
31178, 225, 321, 960, 2800, 8260, 2240, -576, 393, -811, 993.79, 24.33, 100.0
31182, 214, 322, 959, 2940, 10780, 1680, -571, 403, -810, 993.85, 24.33, 100.0
31194, 191, 306, 950, 2940, 10780, 1680, -571, 403, -810, 993.85, 24.33, 100.0
31198, 184, 297, 945, 2940, 10780, 1680, -571, 406, -808, 993.85, 24.33, 100.0
31202, 182, 292, 944, 2240, 11060, 140, -574, 406, -808, 993.83, 24.33, 100.0
31214, 167, 287, 935, 2240, 11060, 140, -574, 406, -808, 993.83, 24.33, 100.0
31218, 167, 284, 933, 2240, 11060, 140, -564, 397, -805, 993.83, 24.33, 100.0
31222, 163, 284, 929, 2170, 9800, -1610, -564, 397, -805, 993.85, 24.33, 100.0
31234, 155, 292, 928, 2170, 9800, -1610, -564, 397, -805, 993.85, 24.33, 100.0
31238, 151, 292, 927, 2940, 7770, -2310, -574, 402, -807, 993.85, 24.36, 100.0
31242, 154, 287, 926, 2940, 7770, -2310, -574, 402, -807, 993.85, 24.36, 100.0
31254, 171, 277, 925, 2940, 7770, -2310, -574, 402, -807, 993.85, 24.36, 100.0
31258, 183, 278, 927, 2590, 5250, -420, -579, 403, -802, 993.85, 24.36, 100.0
31262, 191, 278, 930, 2590, 5250, -420, -579, 403, -802, 993.79, 24.36, 100.0
31274, 200, 272, 943, 2590, 5250, -420, -579, 403, -802, 993.79, 24.36, 100.0
31278, 210, 264, 945, 1400, 3500, 2380, -573, 405, -801, 993.79, 24.36, 100.0
31282, 217, 252, 951, 1400, 3500, 2380, -573, 405, -801, 993.74, 24.36, 100.0
31294, 253, 238, 969, 1400, 3500, 2380, -573, 405, -801, 993.74, 24.36, 100.0
31298, 257, 244, 978, -350, 3290, 4690, -571, 408, -807, 993.74, 24.36, 100.0
31302, 256, 254, 984, -350, 3290, 4690, -571, 408, -807, 993.77, 24.36, 100.0
31314, 255, 255, 984, -70, 3990, 7350, -571, 408, -807, 993.77, 24.36, 100.0
31318, 261, 251, 981, -70, 3990, 7350, -571, 400, -808, 993.77, 24.33, 100.0
31322, 275, 241, 979, -70, 3990, 7350, -571, 400, -808, 993.74, 24.33, 100.0
31334, 304, 232, 976, -350, 3570, 12600, -571, 400, -808, 993.74, 24.33, 100.0
31338, 305, 228, 976, -350, 3570, 12600, -565, 406, -816, 993.74, 24.33, 100.0
31342, 307, 228, 983, -350, 3570, 12600, -565, 406, -816, 993.81, 24.33, 100.0
31354, 296, 245, 998, -700, 3710, 16870, -562, 412, -810, 993.81, 24.33, 100.0
31358, 291, 248, 1001, -700, 3710, 16870, -562, 412, -810, 993.81, 24.33, 100.0
31362, 284, 256, 1000, -700, 3710, 16870, -562, 412, -810, 993.86, 24.33, 100.0
31374, 269, 257, 989, -490, 4760, 17010, -559, 405, -808, 993.86, 24.33, 100.0
31378, 267, 254, 983, -490, 4760, 17010, -559, 405, -808, 993.86, 24.33, 100.0
31382, 268, 254, 979, -490, 4760, 17010, -559, 405, -808, 993.85, 24.33, 100.0
31394, 263, 265, 964, -700, 2940, 15750, -561, 406, -807, 993.85, 24.36, 100.0
31398, 264, 267, 961, -700, 2940, 15750, -561, 406, -807, 993.85, 24.36, 100.0
31402, 262, 268, 956, -700, 2940, 15750, -561, 406, -807, 993.91, 24.36, 100.0
31414, 266, 253, 958, -1750, -770, 14700, -555, 403, -817, 993.91, 24.36, 100.0
31418, 270, 246, 958, -1750, -770, 14700, -555, 403, -817, 993.91, 24.36, 100.0
31422, 271, 242, 958, -1750, -770, 14700, -555, 403, -817, 993.86, 24.36, 100.0
31434, 290, 216, 954, -4830, -4340, 13090, -559, 415, -808, 993.86, 24.36, 100.0
31438, 297, 205, 950, -4830, -4340, 13090, -559, 415, -808, 993.86, 24.36, 100.0
31442, 301, 196, 952, -4830, -4340, 13090, -559, 415, -808, 993.83, 24.36, 100.0
31454, 308, 177, 958, -7280, -7070, 10920, -561, 409, -816, 993.83, 24.36, 100.0
31458, 310, 177, 963, -7280, -7070, 10920, -561, 409, -816, 993.83, 24.36, 100.0
31462, 317, 169, 963, -7280, -7070, 10920, -561, 409, -816, 993.85, 24.36, 100.0
31474, 328, 161, 961, -7490, -7700, 8260, -547, 393, -813, 993.85, 24.35, 100.0
31478, 325, 166, 959, -7490, -7700, 8260, -547, 393, -813, 993.85, 24.35, 100.0
31482, 323, 171, 955, -7490, -7700, 8260, -547, 393, -813, 993.87, 24.35, 100.0
31494, 268, 149, 980, -5320, -6790, 5320, -549, 402, -811, 993.87, 24.35, 100.0
31498, 261, 155, 984, -5320, -6790, 5320, -549, 402, -811, 993.87, 24.35, 100.0
31502, 296, 175, 977, -5320, -6790, 5320, -549, 402, -811, 993.84, 24.35, 100.0
31514, 306, 206, 965, -2030, -5250, 2800, -553, 396, -811, 993.84, 24.35, 100.0
31518, 285, 211, 973, -2030, -5250, 2800, -553, 396, -811, 993.84, 24.35, 100.0
31522, 277, 218, 981, -2030, -5250, 2800, -553, 396, -811, 993.76, 24.35, 100.0
31534, 277, 226, 986, 210, -5950, -350, -547, 403, -814, 993.76, 24.35, 100.0
31538, 280, 227, 983, 210, -5950, -350, -547, 403, -814, 993.76, 24.35, 100.0
31542, 286, 219, 977, 0, -6440, -2800, -547, 403, -814, 993.84, 24.35, 100.0
31554, 301, 207, 975, 0, -6440, -2800, -549, 400, -814, 993.84, 24.36, 100.0
31558, 306, 200, 973, 0, -6440, -2800, -549, 400, -814, 993.84, 24.36, 100.0
31562, 304, 196, 979, -1330, -8540, -6720, -549, 400, -814, 993.81, 24.36, 100.0
31574, 312, 188, 974, -1330, -8540, -6720, -550, 403, -810, 993.81, 24.36, 100.0
31578, 318, 192, 975, -1330, -8540, -6720, -550, 403, -810, 993.81, 24.36, 100.0
31582, 321, 200, 969, -210, -8120, -10920, -550, 403, -810, 993.83, 24.36, 100.0
31594, 279, 208, 968, -210, -8120, -10920, -553, 394, -810, 993.83, 24.36, 100.0
31598, 241, 205, 980, 3430, -3710, -13160, -553, 394, -810, 993.83, 24.36, 100.0
31602, 228, 238, 948, 3430, -3710, -13160, -553, 394, -810, 993.88, 24.36, 100.0
31614, 251, 283, 946, 3430, -3710, -13160, -544, 403, -810, 993.88, 24.36, 100.0
31618, 263, 277, 949, 6720, 2870, -11690, -544, 403, -810, 993.88, 24.36, 100.0
31622, 241, 286, 950, 6720, 2870, -11690, -544, 403, -810, 993.84, 24.36, 100.0
31634, 207, 297, 946, 6720, 2870, -11690, -543, 403, -816, 993.84, 24.38, 100.0
31638, 203, 299, 948, 5740, 4340, -12880, -543, 403, -816, 993.84, 24.38, 100.0
31642, 189, 305, 948, 5740, 4340, -12880, -543, 403, -816, 993.81, 24.38, 100.0
31654, 176, 323, 947, 5740, 4340, -12880, -553, 409, -811, 993.81, 24.38, 100.0
31658, 190, 336, 939, 3010, 4550, -14420, -553, 409, -811, 993.81, 24.38, 100.0
31662, 160, 322, 946, 3010, 4550, -14420, -553, 409, -811, 993.76, 24.38, 100.0
31674, 188, 280, 948, -1750, 630, -17080, -558, 402, -804, 993.76, 24.38, 100.0
31678, 178, 294, 953, -1750, 630, -17080, -558, 402, -804, 993.76, 24.38, 100.0
31682, 163, 283, 952, -1750, 630, -17080, -558, 402, -804, 993.77, 24.38, 100.0
31694, 138, 279, 947, -5530, -4690, -15470, -553, 400, -808, 993.77, 24.38, 100.0
31698, 158, 287, 942, -5530, -4690, -15470, -553, 400, -808, 993.77, 24.38, 100.0
31702, 166, 285, 939, -5530, -4690, -15470, -553, 400, -808, 993.79, 24.38, 100.0
31714, 179, 296, 935, -7700, -7490, -10500, -547, 406, -808, 993.79, 24.33, 100.0
31718, 211, 284, 935, -7700, -7490, -10500, -547, 406, -808, 993.79, 24.33, 100.0
31722, 208, 252, 930, -7700, -7490, -10500, -547, 406, -808, 993.80, 24.33, 100.0
31734, 118, 153, 941, -11760, -8190, -7840, -546, 399, -808, 993.80, 24.33, 100.0
31738, 236, 222, 924, -11760, -8190, -7840, -546, 399, -808, 993.80, 24.33, 100.0
31742, 263, 200, 922, -11760, -8190, -7840, -541, 402, -802, 993.84, 24.33, 100.0
31754, 148, 170, 957, -11690, -5040, -11200, -541, 402, -802, 993.84, 24.33, 100.0
31758, 115, 179, 958, -11690, -5040, -11200, -541, 402, -802, 993.84, 24.33, 100.0
31762, 35, 191, 964, -11690, -5040, -11200, -552, 400, -807, 993.87, 24.33, 100.0
31774, 74, 194, 981, -5460, -1330, -16730, -552, 400, -807, 993.87, 24.33, 100.0
31778, 58, 204, 981, -5460, -1330, -16730, -552, 400, -807, 993.87, 24.33, 100.0
31782, 69, 226, 982, -5460, -1330, -16730, -552, 406, -813, 993.87, 24.33, 100.0
31794, 85, 227, 986, 490, -5810, -17360, -552, 406, -813, 993.87, 24.38, 100.0
31798, 99, 241, 978, 490, -5810, -17360, -552, 406, -813, 993.87, 24.38, 100.0
31802, 106, 254, 978, 490, -5810, -17360, -546, 402, -811, 993.91, 24.38, 100.0
31814, 136, 239, 975, 2730, -12810, -14210, -546, 402, -811, 993.91, 24.38, 100.0
31818, 140, 241, 973, 2730, -12810, -14210, -546, 402, -811, 993.91, 24.38, 100.0
31822, 167, 228, 974, 2730, -12810, -14210, -558, 406, -811, 993.90, 24.38, 100.0
31834, 167, 224, 963, 1400, -17570, -12040, -558, 406, -811, 993.90, 24.38, 100.0
31838, 162, 237, 967, 1400, -17570, -12040, -558, 406, -811, 993.90, 24.38, 100.0
31842, 163, 246, 961, 1400, -17570, -12040, -547, 396, -810, 993.89, 24.38, 100.0
31854, 221, 258, 953, 840, -19530, -12810, -547, 396, -810, 993.89, 24.38, 100.0
31858, 207, 264, 955, 840, -19530, -12810, -547, 396, -810, 993.89, 24.38, 100.0
31862, 217, 261, 954, 840, -19530, -12810, -550, 376, -808, 993.87, 24.40, 100.0
31874, 242, 278, 945, 1190, -21490, -14840, -550, 376, -808, 993.87, 24.40, 100.0
31878, 244, 280, 947, 1190, -21490, -14840, -553, 382, -804, 993.87, 24.40, 100.0
31882, 250, 274, 945, 1190, -21490, -14840, -553, 382, -804, 993.89, 24.40, 100.0
31894, 266, 257, 935, 560, -21700, -16450, -553, 382, -804, 993.89, 24.40, 100.0
31898, 272, 239, 927, 560, -21700, -16450, -556, 390, -793, 993.89, 24.40, 100.0
31902, 284, 218, 927, -770, -21630, -15120, -556, 390, -793, 993.93, 24.40, 100.0
31914, 295, 187, 931, -770, -21630, -15120, -556, 390, -793, 993.93, 24.40, 100.0
31918, 303, 186, 933, -770, -21630, -15120, -558, 376, -804, 993.93, 24.40, 100.0
31922, 299, 177, 941, 350, -19460, -12040, -558, 376, -804, 993.96, 24.40, 100.0
31934, 298, 178, 955, 350, -19460, -12040, -558, 376, -804, 993.96, 24.40, 100.0
31938, 294, 189, 950, 350, -19460, -12040, -558, 376, -793, 993.96, 24.40, 100.0
31942, 281, 192, 958, 5180, -13930, -9870, -558, 376, -793, 994.01, 24.38, 100.0
31954, 270, 178, 960, 5180, -13930, -9870, -558, 376, -793, 994.01, 24.38, 100.0
31958, 263, 181, 954, 5180, -13930, -9870, -549, 385, -793, 994.01, 24.38, 100.0
31962, 254, 188, 950, 9800, -7560, -11970, -549, 385, -793, 994.02, 24.38, 100.0
31974, 254, 211, 947, 9800, -7560, -11970, -549, 385, -793, 994.02, 24.38, 100.0
31978, 250, 232, 947, 13580, -3080, -13790, -562, 379, -802, 994.02, 24.38, 100.0
31982, 245, 241, 949, 13580, -3080, -13790, -562, 379, -802, 993.93, 24.38, 100.0
31994, 217, 289, 952, 13580, -3080, -13790, -562, 379, -802, 993.93, 24.38, 100.0
31998, 214, 299, 952, 16100, 910, -14140, -568, 379, -799, 993.93, 24.38, 100.0
32002, 206, 316, 959, 16100, 910, -14140, -568, 379, -799, 993.88, 24.38, 100.0
32014, 192, 343, 962, 16100, 910, -14140, -567, 381, -796, 993.88, 24.38, 100.0
32018, 185, 356, 960, 14840, 2870, -14980, -567, 381, -796, 993.88, 24.35, 100.0
32022, 181, 358, 958, 14840, 2870, -14980, -567, 381, -796, 993.85, 24.35, 100.0
32034, 200, 361, 938, 14840, 2870, -14980, -571, 384, -798, 993.85, 24.35, 100.0
32038, 215, 355, 934, 10430, 1820, -13650, -571, 384, -798, 993.85, 24.35, 100.0
32042, 230, 351, 931, 10430, 1820, -13650, -571, 384, -798, 993.91, 24.35, 100.0
32054, 280, 478, 875, 5530, 280, -9940, -561, 387, -798, 993.91, 24.35, 100.0
32058, 214, 410, 909, 5530, 280, -9940, -561, 387, -798, 993.91, 24.35, 100.0
32062, 168, 368, 931, 5530, 280, -9940, -561, 387, -798, 993.94, 24.35, 100.0
32074, 187, 292, 936, 770, 2310, -5600, -573, 384, -801, 993.94, 24.35, 100.0
32078, 197, 294, 951, 770, 2310, -5600, -573, 384, -801, 993.94, 24.35, 100.0
32082, 184, 265, 968, 770, 2310, -5600, -573, 384, -801, 994.01, 24.35, 100.0
32094, 143, 246, 989, 210, -770, -7770, -564, 382, -799, 994.01, 24.35, 100.0
32098, 138, 244, 987, 210, -770, -7770, -564, 382, -799, 994.01, 24.35, 100.0
32102, 134, 245, 992, 210, -770, -7770, -564, 382, -799, 993.99, 24.35, 100.0
32114, 118, 267, 1003, 2870, -3850, -9240, -579, 378, -793, 993.99, 24.35, 100.0
32118, 126, 278, 1010, 2870, -3850, -9240, -579, 378, -793, 993.99, 24.35, 100.0
32122, 119, 284, 1016, 2870, -3850, -9240, -579, 378, -793, 993.93, 24.35, 100.0
32134, 126, 344, 1015, 5530, -7700, -7490, -574, 385, -804, 993.93, 24.35, 100.0
32138, 129, 358, 1014, 5530, -7700, -7490, -574, 385, -804, 993.93, 24.35, 100.0
32142, 138, 382, 1001, 5530, -7700, -7490, -574, 385, -804, 993.98, 24.35, 100.0
32154, 196, 374, 985, 6370, -11060, -1330, -585, 381, -798, 993.98, 24.35, 100.0
32158, 167, 356, 982, 6370, -11060, -1330, -585, 381, -798, 993.98, 24.35, 100.0
32162, 157, 352, 980, 6370, -11060, -1330, -585, 381, -798, 993.95, 24.35, 100.0
32174, 207, 336, 979, 1540, -11270, 3430, -573, 375, -798, 993.95, 24.35, 100.0
32178, 203, 327, 994, 1540, -11270, 3430, -573, 375, -798, 993.95, 24.35, 100.0
32182, 195, 335, 996, 1540, -11270, 3430, -573, 375, -798, 993.90, 24.35, 100.0
32194, 188, 310, 1003, -3500, -7490, 4340, -579, 373, -799, 993.90, 24.35, 100.0
32198, 187, 310, 1006, -3500, -7490, 4340, -579, 373, -799, 993.90, 24.35, 100.0
32202, 189, 312, 1010, -3500, -7490, 4340, -579, 373, -799, 993.96, 24.35, 100.0
32214, 185, 349, 1011, -3780, -4270, 7210, -579, 381, -807, 993.96, 24.35, 100.0
32218, 178, 364, 1023, -3780, -4270, 7210, -579, 381, -807, 993.96, 24.35, 100.0
32222, 173, 371, 1022, -3780, -4270, 7210, -579, 381, -807, 993.93, 24.35, 100.0
32234, 151, 402, 1015, -1890, -3640, 15050, -565, 376, -795, 993.93, 24.35, 100.0
32238, 150, 405, 1014, -1890, -3640, 15050, -565, 376, -795, 993.93, 24.35, 100.0
32242, 157, 404, 1022, -1890, -3640, 15050, -565, 376, -795, 993.94, 24.35, 100.0
32254, 204, 415, 1007, -3710, -4340, 23870, -564, 372, -802, 993.94, 24.36, 100.0
32258, 170, 417, 1016, -3710, -4340, 23870, -564, 372, -802, 993.94, 24.36, 100.0
32262, 184, 405, 1016, -10010, -7420, 30590, -564, 372, -802, 993.99, 24.36, 100.0
32274, 224, 409, 1032, -10010, -7420, 30590, -556, 370, -796, 993.99, 24.36, 100.0
32278, 223, 420, 1032, -10010, -7420, 30590, -556, 370, -796, 993.99, 24.36, 100.0
32282, 205, 420, 1035, -16170, -10990, 32900, -556, 370, -796, 993.99, 24.36, 100.0
32294, 188, 422, 1008, -16170, -10990, 32900, -543, 366, -804, 993.99, 24.36, 100.0
32298, 184, 410, 987, -16170, -10990, 32900, -543, 366, -804, 993.99, 24.36, 100.0
32302, 181, 401, 979, -19880, -13580, 29050, -543, 366, -804, 994.04, 24.36, 100.0
32314, 179, 366, 934, -19880, -13580, 29050, -532, 367, -799, 994.04, 24.36, 100.0
32318, 179, 360, 932, -19880, -13580, 29050, -532, 367, -799, 994.04, 24.36, 100.0
32322, 181, 359, 921, -24570, -18340, 25900, -532, 367, -799, 994.02, 24.36, 100.0
32334, 178, 358, 890, -24570, -18340, 25900, -525, 361, -792, 994.02, 24.38, 100.0
32338, 181, 331, 878, -27860, -22820, 26950, -525, 361, -792, 994.02, 24.38, 100.0
32342, 190, 312, 874, -27860, -22820, 26950, -525, 361, -792, 994.09, 24.38, 100.0
32354, 237, 228, 864, -27860, -22820, 26950, -528, 354, -796, 994.09, 24.38, 100.0
32358, 267, 200, 859, -31080, -25130, 32760, -528, 354, -796, 994.09, 24.38, 100.0
32362, 281, 188, 859, -31080, -25130, 32760, -528, 354, -796, 993.97, 24.38, 100.0
32374, 293, 189, 867, -31080, -25130, 32760, -507, 358, -784, 993.97, 24.38, 100.0
32378, 295, 198, 872, -29820, -23380, 37030, -507, 358, -784, 993.97, 24.38, 100.0
32382, 292, 207, 874, -29820, -23380, 37030, -507, 358, -784, 993.99, 24.38, 100.0
32394, 316, 162, 888, -29820, -23380, 37030, -507, 352, -801, 993.99, 24.38, 100.0
32398, 316, 168, 891, -28000, -19460, 37660, -507, 352, -801, 993.99, 24.38, 100.0
32402, 324, 162, 894, -28000, -19460, 37660, -507, 352, -801, 993.99, 24.38, 100.0
32414, 347, 135, 892, -29400, -19600, 39620, -492, 342, -795, 993.99, 24.35, 100.0
32418, 350, 134, 891, -29400, -19600, 39620, -492, 342, -795, 993.99, 24.35, 100.0
32422, 357, 129, 894, -29400, -19600, 39620, -493, 340, -786, 994.04, 24.35, 100.0
32434, 371, 120, 888, -30590, -21560, 42140, -493, 340, -786, 994.04, 24.35, 100.0
32438, 361, 107, 880, -30590, -21560, 42140, -493, 340, -786, 994.04, 24.35, 100.0
32442, 352, 102, 880, -30590, -21560, 42140, -474, 339, -787, 994.09, 24.35, 100.0
32454, 380, 95, 857, -31010, -23940, 43470, -474, 339, -787, 994.09, 24.35, 100.0
32458, 383, 89, 854, -31010, -23940, 43470, -474, 339, -787, 994.09, 24.35, 100.0
32462, 396, 75, 850, -31010, -23940, 43470, -459, 337, -787, 994.10, 24.35, 100.0
32474, 435, 43, 840, -30800, -26530, 42630, -459, 337, -787, 994.10, 24.35, 100.0
32478, 451, 36, 850, -30800, -26530, 42630, -459, 337, -787, 994.10, 24.35, 100.0
32482, 459, 33, 847, -30800, -26530, 42630, -457, 330, -781, 994.03, 24.35, 100.0
32494, 440, 59, 849, -27930, -26320, 39550, -457, 330, -781, 994.03, 24.38, 100.0
32498, 439, 73, 846, -27930, -26320, 39550, -457, 330, -781, 994.03, 24.38, 100.0
32502, 437, 86, 846, -27930, -26320, 39550, -447, 322, -777, 994.02, 24.38, 100.0
32514, 434, 112, 846, -22190, -23660, 34580, -447, 322, -777, 994.02, 24.38, 100.0
32518, 429, 117, 850, -22190, -23660, 34580, -447, 322, -777, 994.02, 24.38, 100.0
32522, 430, 118, 850, -22190, -23660, 34580, -442, 333, -772, 994.08, 24.38, 100.0
32534, 450, 109, 846, -20510, -23380, 33530, -442, 333, -772, 994.08, 24.38, 100.0
32538, 474, 95, 842, -20510, -23380, 33530, -442, 333, -772, 994.08, 24.38, 100.0
32542, 493, 75, 840, -20510, -23380, 33530, -432, 328, -771, 994.05, 24.38, 100.0
32554, 527, 48, 853, -22750, -24570, 36050, -432, 328, -771, 994.05, 24.38, 100.0
32558, 536, 34, 841, -22750, -24570, 36050, -417, 327, -772, 994.05, 24.38, 100.0
32562, 553, 20, 840, -22750, -24570, 36050, -417, 327, -772, 994.01, 24.36, 100.0
32574, 579, -11, 849, -24570, -23380, 40390, -417, 327, -772, 994.01, 24.36, 100.0
32578, 584, -21, 847, -24570, -23380, 40390, -418, 318, -769, 994.01, 24.36, 100.0
32582, 582, -32, 847, -24570, -23380, 40390, -418, 318, -769, 994.02, 24.36, 100.0
32594, 557, -53, 860, -24150, -18760, 46060, -418, 318, -769, 994.02, 24.36, 100.0
32598, 550, -61, 853, -24150, -18760, 46060, -408, 322, -774, 994.02, 24.36, 100.0
32602, 538, -67, 856, -24150, -18760, 46060, -408, 322, -774, 994.06, 24.36, 100.0
32614, 515, -79, 869, -23240, -13370, 49840, -408, 322, -774, 994.06, 24.36, 100.0
32618, 504, -77, 873, -23240, -13370, 49840, -388, 321, -760, 994.06, 24.36, 100.0
32622, 500, -77, 873, -23240, -13370, 49840, -388, 321, -760, 993.98, 24.36, 100.0
32634, 477, -55, 878, -22400, -11970, 50470, -388, 321, -760, 993.98, 24.36, 100.0
32638, 474, -54, 876, -22400, -11970, 50470, -382, 319, -759, 993.98, 24.36, 100.0
32642, 476, -51, 872, -21350, -15120, 50050, -382, 319, -759, 993.93, 24.40, 100.0
32654, 503, -42, 856, -21350, -15120, 50050, -382, 319, -759, 993.93, 24.40, 100.0
32658, 519, -42, 847, -21350, -15120, 50050, -379, 325, -759, 993.93, 24.40, 100.0
32662, 527, -41, 845, -21630, -21350, 51310, -379, 325, -759, 993.90, 24.40, 100.0
32674, 604, -83, 838, -21630, -21350, 51310, -379, 325, -759, 993.90, 24.40, 100.0
32678, 621, -103, 839, -21630, -21350, 51310, -357, 322, -753, 993.90, 24.40, 100.0
32682, 629, -110, 839, -23380, -25900, 54670, -357, 322, -753, 993.90, 24.40, 100.0
32694, 618, -108, 841, -23380, -25900, 54670, -352, 321, -748, 993.92, 24.40, 100.0
32698, 614, -110, 840, -23380, -23940, 54880, -352, 321, -748, 993.92, 24.40, 100.0
32702, 609, -115, 839, -22960, -23940, 54880, -352, 321, -748, 993.92, 24.40, 100.0
32714, 590, -131, 848, -22960, -23940, 54880, -346, 321, -748, 993.88, 24.40, 100.0
32718, 581, -130, 848, -20650, -20370, 50890, -346, 321, -748, 993.88, 24.36, 100.0
32722, 571, -122, 847, -20650, -20370, 50890, -346, 321, -748, 993.88, 24.36, 100.0
32734, 571, -126, 838, -20650, -20370, 50890, -339, 319, -747, 993.91, 24.36, 100.0
32738, 570, -129, 836, -19250, -20160, 44450, -339, 319, -747, 993.91, 24.36, 100.0
32742, 577, -134, 833, -19250, -20160, 44450, -339, 319, -747, 993.91, 24.36, 100.0
32754, 575, -141, 829, -19250, -20160, 44450, -322, 318, -738, 993.90, 24.36, 100.0
32758, 582, -145, 832, -19390, -21350, 38220, -322, 318, -738, 993.90, 24.36, 100.0
32762, 584, -145, 831, -19390, -21350, 38220, -322, 318, -738, 993.90, 24.36, 100.0
32774, 580, -152, 837, -19460, -20860, 37100, -315, 313, -744, 993.92, 24.36, 100.0
32778, 575, -155, 842, -19460, -20860, 37100, -315, 313, -744, 993.92, 24.36, 100.0
32782, 574, -165, 842, -19460, -20860, 37100, -315, 313, -744, 993.92, 24.36, 100.0
32794, 564, -189, 852, -19950, -19040, 40600, -309, 316, -735, 993.92, 24.36, 100.0
32798, 552, -191, 852, -19950, -19040, 40600, -309, 316, -735, 993.92, 24.38, 100.0
32802, 549, -192, 856, -19950, -19040, 40600, -309, 316, -735, 993.92, 24.38, 100.0
32814, 524, -214, 855, -19950, -17360, 42350, -309, 313, -739, 993.92, 24.38, 100.0
32818, 519, -237, 859, -19950, -17360, 42350, -309, 313, -739, 993.92, 24.38, 100.0
32822, 518, -254, 865, -19950, -17360, 42350, -309, 313, -739, 993.92, 24.38, 100.0
32834, 525, -246, 871, -18550, -17990, 40950, -294, 319, -729, 993.90, 24.38, 100.0
32838, 530, -242, 867, -18550, -17990, 40950, -294, 319, -729, 993.90, 24.38, 100.0
32842, 533, -246, 866, -18550, -17990, 40950, -294, 319, -729, 993.90, 24.38, 100.0
32854, 562, -260, 865, -13860, -20510, 38920, -286, 318, -726, 993.86, 24.38, 100.0
32858, 566, -256, 865, -13860, -20510, 38920, -286, 318, -726, 993.86, 24.38, 100.0
32862, 572, -247, 865, -13860, -20510, 38920, -286, 318, -726, 993.86, 24.38, 100.0
32874, 571, -230, 855, -8750, -22330, 37660, -280, 315, -723, 993.87, 24.36, 100.0
32878, 571, -226, 854, -8750, -22330, 37660, -280, 315, -723, 993.87, 24.36, 100.0
32882, 569, -216, 851, -8750, -22330, 37660, -280, 315, -723, 993.87, 24.36, 100.0
32894, 576, -178, 841, -4830, -22610, 35630, -267, 315, -720, 993.86, 24.36, 100.0
32898, 550, -179, 850, -4830, -22610, 35630, -267, 315, -720, 993.86, 24.36, 100.0
32902, 560, -169, 843, -4830, -22610, 35630, -267, 315, -720, 993.86, 24.36, 100.0
32914, 530, -134, 833, -3220, -23030, 33040, -277, 313, -717, 993.85, 24.36, 100.0
32918, 540, -142, 837, -3220, -23030, 33040, -277, 313, -717, 993.85, 24.36, 100.0
32922, 545, -138, 828, -3220, -23030, 33040, -277, 313, -717, 993.85, 24.36, 100.0
32934, 576, -149, 818, -3290, -24500, 32130, -258, 322, -715, 993.85, 24.36, 100.0
32938, 601, -152, 813, -3290, -24500, 32130, -258, 322, -715, 993.85, 24.36, 100.0
32942, 605, -152, 812, -3290, -24500, 32130, -258, 322, -715, 993.85, 24.36, 100.0
32954, 627, -159, 817, -4060, -26950, 33950, -259, 312, -714, 993.87, 24.38, 100.0
32958, 619, -151, 816, -4060, -26950, 33950, -259, 312, -714, 993.87, 24.38, 100.0
32962, 607, -147, 815, -4060, -26950, 33950, -259, 312, -714, 993.87, 24.38, 100.0
32974, 578, -140, 818, -2800, -25130, 35560, -250, 316, -703, 993.89, 24.38, 100.0
32978, 564, -138, 816, -2800, -25130, 35560, -250, 316, -703, 993.89, 24.38, 100.0
32982, 556, -136, 817, -2800, -25130, 35560, -250, 316, -703, 993.89, 24.38, 100.0
32994, 531, -147, 809, -1890, -21000, 33040, -244, 316, -700, 993.93, 24.38, 100.0
32998, 539, -168, 812, -1890, -21000, 33040, -244, 316, -700, 993.93, 24.38, 100.0
33002, 541, -176, 811, -3430, -19320, 26320, -244, 316, -700, 993.93, 24.38, 100.0
33014, 528, -187, 814, -3430, -19320, 26320, -247, 313, -697, 993.94, 24.38, 100.0
33018, 533, -192, 812, -3430, -19320, 26320, -247, 313, -697, 993.94, 24.38, 100.0
33022, 543, -205, 814, -4130, -19390, 21700, -247, 313, -697, 993.94, 24.38, 100.0
33034, 564, -214, 815, -4130, -19390, 21700, -252, 318, -700, 993.87, 24.38, 100.0
33038, 563, -208, 813, -4130, -19390, 21700, -252, 318, -700, 993.87, 24.38, 100.0
33042, 568, -207, 811, -1960, -18830, 19880, -252, 318, -700, 993.87, 24.38, 100.0
33054, 576, -205, 809, -1960, -18830, 19880, -235, 321, -697, 993.85, 24.38, 100.0
33058, 578, -204, 810, -1960, -18830, 19880, -235, 321, -697, 993.85, 24.38, 100.0
33062, 573, -197, 806, 1330, -16660, 17220, -235, 321, -697, 993.85, 24.38, 100.0
33074, 576, -195, 794, 1330, -16660, 17220, -249, 312, -703, 993.86, 24.38, 100.0
33078, 583, -201, 792, 3430, -15050, 13440, -249, 312, -703, 993.86, 24.38, 100.0
33082, 589, -204, 791, 3430, -15050, 13440, -249, 312, -703, 993.86, 24.38, 100.0
33094, 609, -207, 787, 3430, -15050, 13440, -240, 322, -703, 993.87, 24.38, 100.0
33098, 612, -206, 789, 4970, -14770, 9940, -240, 322, -703, 993.87, 24.38, 100.0
33102, 613, -197, 792, 4970, -14770, 9940, -244, 310, -688, 993.87, 24.38, 100.0
33114, 613, -173, 800, 4970, -14770, 9940, -244, 310, -688, 993.91, 24.40, 100.0
33118, 610, -160, 800, 7560, -13720, 7770, -244, 310, -688, 993.91, 24.40, 100.0
33122, 606, -155, 797, 7560, -13720, 7770, -241, 307, -696, 993.91, 24.40, 100.0
33134, 612, -148, 796, 7560, -13720, 7770, -241, 307, -696, 993.90, 24.40, 100.0
33138, 617, -147, 799, 8820, -12810, 7070, -241, 307, -696, 993.90, 24.40, 100.0
33142, 618, -142, 797, 8820, -12810, 7070, -232, 313, -699, 993.90, 24.40, 100.0
33154, 617, -138, 796, 7980, -12320, 7000, -232, 313, -699, 993.90, 24.40, 100.0
33158, 618, -140, 793, 7980, -12320, 7000, -232, 313, -699, 993.90, 24.40, 100.0
33162, 624, -144, 793, 7980, -12320, 7000, -237, 313, -696, 993.90, 24.40, 100.0
33174, 625, -157, 787, 7420, -11060, 5880, -237, 313, -696, 993.86, 24.40, 100.0
33178, 617, -162, 786, 7420, -11060, 5880, -237, 313, -696, 993.86, 24.40, 100.0
33182, 614, -169, 786, 7420, -11060, 5880, -234, 309, -693, 993.86, 24.40, 100.0
33194, 609, -162, 785, 9030, -8960, 4550, -234, 309, -693, 993.90, 24.40, 100.0
33198, 608, -159, 786, 9030, -8960, 4550, -234, 309, -693, 993.90, 24.40, 100.0
33202, 614, -156, 785, 9030, -8960, 4550, -238, 306, -691, 993.90, 24.40, 100.0
33214, 625, -133, 777, 12810, -7490, 4760, -238, 306, -691, 993.88, 24.40, 100.0
33218, 625, -125, 778, 12810, -7490, 4760, -238, 306, -691, 993.88, 24.40, 100.0
33222, 624, -122, 775, 12810, -7490, 4760, -238, 303, -688, 993.88, 24.40, 100.0
33234, 630, -101, 781, 14630, -6300, 6580, -238, 303, -688, 993.89, 24.40, 100.0
33238, 630, -102, 785, 14630, -6300, 6580, -238, 312, -697, 993.89, 24.40, 100.0
33242, 628, -107, 789, 14630, -6300, 6580, -238, 312, -697, 993.89, 24.40, 100.0
33254, 607, -134, 790, 13440, -4550, 8680, -238, 312, -697, 993.90, 24.40, 100.0
33258, 607, -148, 792, 13440, -4550, 8680, -235, 315, -688, 993.90, 24.40, 100.0
33262, 608, -149, 795, 13440, -4550, 8680, -235, 315, -688, 993.90, 24.40, 100.0
33274, 613, -137, 798, 12880, -3220, 6860, -235, 315, -688, 993.85, 24.40, 100.0
33278, 609, -119, 794, 12880, -3220, 6860, -253, 318, -706, 993.85, 24.40, 100.0
33282, 610, -107, 789, 12880, -3220, 6860, -253, 318, -706, 993.85, 24.40, 100.0
33294, 639, -96, 796, 16380, -3500, 2100, -253, 318, -706, 993.86, 24.40, 100.0
33298, 652, -87, 794, 16380, -3500, 2100, -249, 316, -699, 993.86, 24.40, 100.0
33302, 661, -86, 795, 16380, -3500, 2100, -249, 316, -699, 993.86, 24.40, 100.0
33314, 698, -90, 801, 18410, -4690, -770, -249, 316, -699, 993.80, 24.40, 100.0
33318, 701, -86, 807, 18410, -4690, -770, -246, 312, -691, 993.80, 24.40, 100.0
33322, 703, -78, 814, 18410, -4690, -770, -246, 312, -691, 993.80, 24.40, 100.0
33334, 688, -61, 824, 18760, -3570, 770, -246, 312, -691, 993.88, 24.40, 100.0
33338, 684, -63, 825, 18760, -3570, 770, -244, 310, -697, 993.88, 24.40, 100.0
33342, 678, -66, 827, 18760, -3570, 770, -244, 310, -697, 993.88, 24.38, 100.0
33354, 657, -72, 832, 18760, 1190, 5320, -244, 313, -696, 993.87, 24.38, 100.0
33358, 645, -76, 833, 18760, 1190, 5320, -253, 313, -696, 993.87, 24.38, 100.0
33362, 634, -78, 833, 16940, 5530, 9800, -253, 313, -696, 993.87, 24.38, 100.0
33374, 609, -87, 829, 16940, 5530, 9800, -252, 313, -705, 993.89, 24.38, 100.0
33378, 602, -86, 831, 16940, 5530, 9800, -252, 313, -705, 993.89, 24.38, 100.0
33382, 597, -80, 843, 15610, 8190, 11620, -252, 313, -705, 993.89, 24.38, 100.0
33394, 558, -59, 851, 15610, 8190, 11620, -247, 315, -705, 993.91, 24.38, 100.0
33398, 551, -65, 847, 15610, 8190, 11620, -247, 315, -705, 993.91, 24.38, 100.0
33402, 552, -70, 845, 15750, 9240, 11970, -247, 315, -705, 993.91, 24.38, 100.0
33414, 581, -80, 850, 15750, 9240, 11970, -247, 313, -702, 994.00, 24.38, 100.0
33418, 589, -79, 850, 15750, 9240, 11970, -247, 313, -702, 994.00, 24.38, 100.0
33422, 593, -90, 853, 15540, 7560, 11200, -247, 313, -702, 994.00, 24.38, 100.0
33434, 620, -102, 870, 15540, 7560, 11200, -246, 327, -703, 993.96, 24.38, 100.0
33438, 628, -98, 879, 15890, 6440, 7910, -246, 327, -703, 993.96, 24.38, 100.0
33442, 626, -99, 880, 15890, 6440, 7910, -246, 327, -703, 993.96, 24.38, 100.0
33454, 617, -118, 891, 15890, 6440, 7910, -259, 315, -709, 993.97, 24.38, 100.0
33458, 624, -130, 888, 16170, 7910, 1820, -259, 315, -709, 993.97, 24.38, 100.0
33462, 624, -138, 885, 16170, 7910, 1820, -259, 315, -709, 993.97, 24.38, 100.0
33474, 630, -157, 876, 16170, 7910, 1820, -249, 327, -715, 993.95, 24.38, 100.0
33478, 628, -159, 877, 16170, 9380, -3430, -249, 327, -715, 993.95, 24.38, 100.0
33482, 626, -161, 873, 16170, 9380, -3430, -249, 327, -715, 993.95, 24.38, 100.0
33494, 620, -169, 860, 16170, 9380, -3430, -253, 322, -706, 993.93, 24.38, 100.0
33498, 619, -165, 862, 17150, 10360, -4970, -253, 322, -706, 993.93, 24.42, 100.0
33502, 616, -164, 867, 17150, 10360, -4970, -253, 322, -706, 993.93, 24.42, 100.0
33514, 614, -120, 892, 18060, 10360, -3780, -253, 328, -717, 993.90, 24.42, 100.0
33518, 604, -117, 902, 18060, 10360, -3780, -253, 328, -717, 993.90, 24.42, 100.0
33522, 597, -101, 908, 18060, 10360, -3780, -253, 328, -717, 993.90, 24.42, 100.0
33534, 556, -88, 894, 17850, 10010, -2940, -255, 336, -711, 993.87, 24.42, 100.0
33538, 541, -91, 874, 17850, 10010, -2940, -255, 336, -711, 993.87, 24.42, 100.0
33542, 539, -94, 865, 17850, 10010, -2940, -255, 336, -711, 993.87, 24.42, 100.0
33554, 510, -107, 838, 13930, 7980, -3430, -262, 327, -720, 993.84, 24.42, 100.0
33558, 503, -104, 837, 13930, 7980, -3430, -262, 327, -720, 993.84, 24.42, 100.0
33562, 492, -101, 837, 13930, 7980, -3430, -262, 327, -720, 993.84, 24.42, 100.0
33574, 491, -95, 840, 8400, 5110, -3570, -256, 330, -715, 993.80, 24.42, 100.0
33578, 494, -97, 840, 8400, 5110, -3570, -256, 330, -715, 993.80, 24.40, 100.0
33582, 497, -99, 841, 8400, 5110, -3570, -256, 330, -715, 993.80, 24.40, 100.0
33594, 505, -125, 853, 3150, 2730, -1540, -265, 337, -717, 993.76, 24.40, 100.0
33598, 507, -136, 861, 3150, 2730, -1540, -265, 337, -717, 993.76, 24.40, 100.0
